participant_id,condition,accuracy,button_response,clicks,coding,correct,expected,internal_node_id,keyboard_response,question_order,response,response_source,rt,stimulus,time_elapsed,trial_index,trial_type,triplet_id,error
36,masc lex 2,,,,,,,0.0-0.0,,,0,,10022,"<p><font size=""3"">DESCRIPTION: You are invited to participate in a research study. Its general purpose is to understand how people perceive written stimuli. You will be asked to read a series of sentences and provide judgments about the social characteristics of the speakers of these sentences. <br><br>RISKS AND BENEFITS: There are no known risks, costs, or discomforts in this study and this judgment is based on a large body of experiments with the same or similar procedures with people of similar ages, sex, origins, etc.  We cannot and do not guarantee or promise that you will receive any benefits from this study. You will help us to understand how people perceive written stimuli.<br><br>PAYMENTS: You will be paid at the posted rate. <br><br>SUBJECT RIGHTS: If you have read this form and have decided to participate in this project, please understand your participation is voluntary and you have the right to withdraw your consent or discontinue participation at any time without penalty or loss of benefits to which you are otherwise entitled. You have the right to refuse to answer particular questions. Your individual privacy will be maintained in all published and written data resulting from the study. <br><br> CONTACT INFORMATION: If you have any questions, concerns or complaints about this research study, its procedures, risks and benefits, you should contact the Protocol Director Meghan Sumner at (650)-725-9336. If you are not satisfied with how this study is being conducted, or if you have any concerns, complaints, or general questions about the research or your rights as a participant, please contact the Stanford Institutional Review Board (IRB) to speak to someone independent of the research team at (650)-723-2480 or toll free at 1-866-680-2906. You can also write to the Stanford IRB, Stanford University, 3000 El Camino Real, Five Palo Alto Square, 4th Floor, Palo Alto, CA 94306 USA.<br><br>WAIVER OF DOCUMENTATION: If you agree to participate in this research, please continue on to the next page.</font></p>",10049,0,html-button-response,,
36,masc lex 2,,,,,,,0.0-1.0,,,0,,13529,"<p><font size='3'>In this experiment, you will read a series of sentences. Each sentence has been produced by a different speaker. After reading each sentence, you will be asked to rate the social characteristics of its speaker. To rate the social characteristics of a speaker, click along the scale. After providing your rating, you can proceed to the next trial by clicking 'Continue'. Some trials will have comprehension questions. To complete these, click on the button with the correct answer. <br><br>When you're ready to begin, click ‘Start’.</font></p>",23585,1,html-button-response,,
36,masc lex 2,,,"[{'time': 7341.10000000149, 'location': 0.45928387431801654}]",,,neutral,0.0-2.0,,,0.459283874,,,"['<p style=""font-weight:bold;"">I\'m surprised how tasty that burger was.</p><br><br>How masculine is the speaker of this sentence?<br><br>']",33603,2,html-vas-response,14,
36,masc lex 2,,,"[{'time': 6089.29999999702, 'location': 0.07327982202938166}]",,,non_masc,0.0-3.0,,,0.073279822,,,"['<p style=""font-weight:bold;"">I see you got new lilac mugs.</p><br><br>How masculine is the speaker of this sentence?<br><br>']",43611,3,html-vas-response,4,
36,masc lex 2,correct,0,,,0,,0.0-4.0,,,,button,6027,What type of dish is the speaker commenting on?<br><br>,49646,4,html-multi-response,,
36,masc lex 2,,,"[{'time': 5035.699999999255, 'location': 0.23128148073820112}]",,,masc,0.0-5.0,,,0.231281481,,,"['<p style=""font-weight:bold;"">My bad, I didn\'t see you there.</p><br><br>How masculine is the speaker of this sentence?<br><br>']",59655,5,html-vas-response,21,
36,masc lex 2,,,"[{'time': 4921.699999999255, 'location': 0.013279192139956549}]",,,non_masc,0.0-6.0,,,0.013279192,,7829,"['<p style=""font-weight:bold;"">Girl, you won\'t believe who I bumped into this week.</p><br><br>How masculine is the speaker of this sentence?<br><br>']",67492,6,html-vas-response,2,
36,masc lex 2,incorrect,0,,,1,,0.0-7.0,,,,button,6020,True or False: The speaker expressed that they bumped into someone two weeks ago.<br><br>,73516,7,html-multi-response,,
36,masc lex 2,,,"[{'time': 6105.800000000745, 'location': 0.7352867718093721}]",,,non_masc,0.0-8.0,,,0.735286772,,7309,"['<p style=""font-weight:bold;"">When is lunch? I\'m literally starving.</p><br><br>How masculine is the speaker of this sentence?<br><br>']",80832,8,html-vas-response,3,
36,masc lex 2,correct,1,,,1,,0.0-9.0,,,,button,2007,What meal is the speaker asking about?<br><br>,82844,9,html-multi-response,,
36,masc lex 2,,,"[{'time': 4320.5, 'location': 0.653285910960491}]",,,masc,0.0-10.0,,,0.653285911,,5567,"['<p style=""font-weight:bold;"">Your presentation sounded good.</p><br><br>How masculine is the speaker of this sentence?<br><br>']",88422,10,html-vas-response,18,
36,masc lex 2,,,"[{'time': 4114.60000000149, 'location': 0.5512848401484683}]",,,neutral,0.0-11.0,,,0.55128484,,5578,"['<p style=""font-weight:bold;"">I hear what you\'re saying, Sam.</p><br><br>How masculine is the speaker of this sentence?<br><br>']",94008,11,html-vas-response,9,
36,masc lex 2,,,"[{'time': 4157.699999999255, 'location': 0.9072885774923908}]",,,masc,0.0-12.0,,,0.907288577,,5760,"['<p style=""font-weight:bold;"">I hear what you\'re saying, bro.</p><br><br>How masculine is the speaker of this sentence?<br><br>']",99775,12,html-vas-response,23,
36,masc lex 2,,,"[{'time': 2938.79999999702, 'location': 0.4872841682664149}]",,,neutral,0.0-13.0,,,0.487284168,,4381,"['<p style=""font-weight:bold;"">I bought a new shirt last Friday.</p><br><br>How masculine is the speaker of this sentence?<br><br>']",104166,13,html-vas-response,13,
36,masc lex 2,,,"[{'time': 3520.800000000745, 'location': 0.7032864358683453}]",,,masc,0.0-14.0,,,0.703286436,,4935,"['<p style=""font-weight:bold;"">The party last night was really sick.</p><br><br>How masculine is the speaker of this sentence?<br><br>']",109110,14,html-vas-response,19,
36,masc lex 2,,,"[{'time': 4465.199999999255, 'location': 0.3792830344654497}]",,,neutral,0.0-15.0,,,0.379283034,,6132,"['<p style=""font-weight:bold;"">My workout yesterday had me feeling exhausted.</p><br><br>How masculine is the speaker of this sentence?<br><br>']",115251,15,html-vas-response,11,
36,masc lex 2,,,"[{'time': 4239.60000000149, 'location': 0.5092843992258708}]",,,neutral,0.0-16.0,,,0.509284399,,5290,"['<p style=""font-weight:bold;"">I can\'t stop laughing -- that was really funny.</p><br><br>How masculine is the speaker of this sentence?<br><br>']",120550,16,html-vas-response,10,
36,masc lex 2,,,"[{'time': 4619, 'location': 0.3532827615133655}]",,,non_masc,0.0-17.0,,,0.353282762,,5533,"['<p style=""font-weight:bold;"">Chase was so tired on Monday.</p><br><br>How masculine is the speaker of this sentence?<br><br>']",126093,17,html-vas-response,6,
36,masc lex 2,correct,2,,,2,,0.0-18.0,,,,button,1986,Who was tired?<br><br>,128083,18,html-multi-response,,
36,masc lex 2,,,"[{'time': 6019.89999999851, 'location': 0.4472837483401315}]",,,neutral,0.0-19.0,,,0.447283748,,7164,"['<p style=""font-weight:bold;"">Some people think that show was very entertaining.</p><br><br>How masculine is the speaker of this sentence?<br><br>']",135256,19,html-vas-response,15,
36,masc lex 2,,,"[{'time': 4902.20000000298, 'location': 0.24928166970502863}]",,,non_masc,0.0-20.0,,,0.24928167,,5932,"['<p style=""font-weight:bold;"">Without a map, we are totally lost.</p><br><br>How masculine is the speaker of this sentence?<br><br>']",141196,20,html-vas-response,5,
36,masc lex 2,correct,1,,,1,,0.0-21.0,,,,button,3064,True or False: The speaker believes they will be lost without a GPS.<br><br>,144266,21,html-multi-response,,
36,masc lex 2,,,"[{'time': 6292.199999999255, 'location': 0.46528393730695905}]",,,neutral,0.0-22.0,,,0.465283937,,7770,"['<p style=""font-weight:bold;"">My office is fairly boring.</p><br><br>How masculine is the speaker of this sentence?<br><br>']",152045,22,html-vas-response,16,
36,masc lex 2,,,"[{'time': 4883.599999997765, 'location': 0.3852830974543922}]",,,non_masc,0.0-23.0,,,0.385283097,,5891,"['<p style=""font-weight:bold;"">Can I take a peek at your answer? </p><br><br>How masculine is the speaker of this sentence?<br><br>']",157945,23,html-vas-response,1,
36,masc lex 2,correct,1,,,1,,0.0-24.0,,,,button,3411,What did the speaker ask to see?<br><br>,161362,24,html-multi-response,,
36,masc lex 2,,,"[{'time': 5118, 'location': 0.6772861629162611}]",,,masc,0.0-25.0,,,0.677286163,,6481,"['<p style=""font-weight:bold;"">That\'s a goofy thing to say.</p><br><br>How masculine is the speaker of this sentence?<br><br>']",167851,25,html-vas-response,20,
36,masc lex 2,,,"[{'time': 4991.5, 'location': 0.32928250955759547}]",,,neutral,0.0-26.0,,,0.32928251,,6000,"['<p style=""font-weight:bold;"">My sister really wanted to let you know that she will be late. </p><br><br>How masculine is the speaker of this sentence?<br><br>']",173859,26,html-vas-response,12,
36,masc lex 2,,,"[{'time': 3981.10000000149, 'location': 0.03927946509204076}]",,,non_masc,0.0-27.0,,,0.039279465,,5314,"['<p style=""font-weight:bold;"">At the beach, I took the loveliest picture of the sunset.</p><br><br>How masculine is the speaker of this sentence?<br><br>']",179182,27,html-vas-response,7,
36,masc lex 2,correct,0,,,0,,0.0-28.0,,,,button,2214,What did the speaker photograph?<br><br>,181400,28,html-multi-response,,
36,masc lex 2,,,"[{'time': 5278.60000000149, 'location': 0.2872820686349979}]",,,masc,0.0-29.0,,,0.287282069,,6343,"['<p style=""font-weight:bold;"">I\'m surprised how delicious that taco was.</p><br><br>How masculine is the speaker of this sentence?<br><br>']",187751,29,html-vas-response,17,
36,masc lex 2,,,"[{'time': 2937.10000000149, 'location': 0.011279171143642377}]",,,non_masc,0.0-30.0,,,0.011279171,,4328,"['<p style=""font-weight:bold;"">I bought a periwinkle shirt last Friday.</p><br><br>How masculine is the speaker of this sentence?<br><br>']",192088,30,html-vas-response,8,
36,masc lex 2,correct,1,,,1,,0.0-31.0,,,,button,1544,What color shirt did the speaker purchase?<br><br>,193637,31,html-multi-response,,
36,masc lex 2,,,"[{'time': 4762.60000000149, 'location': 0.4712840002959016}]",,,masc,0.0-32.0,,,0.471284,,5665,"['<p style=""font-weight:bold;"">I feel sorry for the dumb thing.</p><br><br>How masculine is the speaker of this sentence?<br><br>']",199311,32,html-vas-response,22,
36,masc lex 2,,,"[{'time': 4224.60000000149, 'location': 0.7952874016987971}]",,,masc,0.0-33.0,,,0.795287402,,5382,"['<p style=""font-weight:bold;"">I think that article was, um, well-researched.</p><br><br>How masculine is the speaker of this sentence?<br><br>']",204701,33,html-vas-response,24,
36,masc lex 2,,,,,,,0.0-34.0,,,0,,15330,"<p><font size='3'>You have completed the experimental trials. You will now complete a short questionnaire. During the questionnaire, you will see a series of statements alongside a scale. Click along the scale to indicate how much you agree or disagree with the statement. Upon completion of the questionnaire, you will be asked to fill out an optional demographic survey. <br><br>When you're ready to begin the questionnaire, click ‘Continue’.</font></p>",220036,34,html-button-response,,
36,masc lex 2,,,"[{'time': 6184.39999999851, 'location': 0.11928030494460758}, {'time': 7999, 'location': 0.019279255128899057}]",POSITIVE,,,0.0-35.0-0.0,,,0.019279255,,9081,Some types of work are just not appropriate for women.<br><br>,229129,35,html-vas-response,,
36,masc lex 2,,,"[{'time': 6656.699999999255, 'location': 0.9912894593375858}]",NEGATIVE,,,0.0-35.0-0.1,,,0.991289459,,7903,The freedom that children are given should be determined by their age and maturity level and not by their sex.<br><br>,237046,36,html-vas-response,,
36,masc lex 2,,,"[{'time': 5846.900000002235, 'location': 0.1852809978229752}]",POSITIVE,,,0.0-35.0-0.2,,,0.185280998,,6854,A father’s major responsibility is to provide financially for his children.<br><br>,243909,37,html-vas-response,,
36,masc lex 2,,,"[{'time': 2795.70000000298, 'location': 0.05527963306255412}]",POSITIVE,,,0.0-35.0-0.3,,,0.055279633,,3912,Men are more sexual than women.<br><br>,247830,38,html-vas-response,,
36,masc lex 2,,,"[{'time': 5174.5, 'location': 0.9932894803339}]",NEGATIVE,,,0.0-35.0-0.4,,,0.99328948,,6311,People can be both aggressive and nurturing regardless of sex.<br><br>,254150,39,html-vas-response,,
36,masc lex 2,,,"[{'time': 6643.5, 'location': 0.9912894593375858}]",NEGATIVE,,,0.0-35.0-0.5,,,0.991289459,,7926,Tasks around the house should not be assigned by sex.<br><br>,262085,40,html-vas-response,,
36,masc lex 2,,,"[{'time': 4655.39999999851, 'location': 0.04127948608835493}]",POSITIVE,,,0.0-35.0-0.6,,,0.041279486,,5635,Mothers should make most decisions about how children are brought up.<br><br>,267729,41,html-vas-response,,
36,masc lex 2,,,"[{'time': 5813.29999999702, 'location': 0.02927936011046991}]",POSITIVE,,,0.0-35.0-0.7,,,0.02927936,,6972,Only some types of work are appropriate for both men and women.<br><br>,274709,42,html-vas-response,,
36,masc lex 2,,,"[{'time': 7576, 'location': 0.2232813967529444}]",POSITIVE,,,0.0-35.0-0.8,,,0.223281397,,8424,Girls should be protected and watched over more than boys.<br><br>,283139,43,html-vas-response,,
36,masc lex 2,,,"[{'time': 2934.699999999255, 'location': 0.9972895223265285}]",NEGATIVE,,,0.0-35.0-0.9,,,0.997289522,,4261,People should be treated the same regardless of their sex.<br><br>,287408,44,html-vas-response,,
36,masc lex 2,,,"[{'time': 6522.800000000745, 'location': 0.9592891233965593}]",NEGATIVE,,,0.0-35.0-0.10,,,0.959289123,,7601,We should stop thinking about whether people are male or female and focus on other characteristics.<br><br>,295018,45,html-vas-response,,
36,masc lex 2,,,"[{'time': 4773.39999999851, 'location': 0.011279171143642377}]",POSITIVE,,,0.0-35.0-0.11,,,0.011279171,,5904,"For many important jobs, it is better to choose men instead of women.<br><br>",300931,46,html-vas-response,,
36,masc lex 2,,,"[{'time': 5364.099999997765, 'location': 0.1652807878598335}, {'time': 5631.89999999851, 'location': 0.1652807878598335}, {'time': 6449.699999999255, 'location': 0.06527973804412497}]",POSITIVE,,,0.0-35.0-0.12,,,0.065279738,,8731,Mothers should work only if necessary.<br><br>,309669,47,html-vas-response,,
36,masc lex 2,,,,,,,0.0-36.0,,,0,,4382,"<p><font size='3'>You have completed the questionnaire. There will now be an optional survey. Please answer the following questions if you feel comfortable doing so. <br><br>When you're ready to procede, click ‘Continue’.</font></p>",314057,48,html-button-response,,
36,masc lex 2,,,,,,,0.0-37.0,,[0],{'Q0': 1},,5615,,319679,49,survey-likert,,
36,masc lex 2,[],,,,,,0.0-38.0,,,"{'age': '63', 'P0_Q0': None, 'enjoy': 'An average experiment', 'gender': 'Male', 'correct': 'Yes', 'payment': 'The payment was fair', 'comments': '', 'language': 'English', 'education': 'Some college'}",,43133,,363066,50,survey,,
36,masc lex 2,,,,,,,0.0-39.0,,,0,,2528,Thank you for your time! Please click 'Finish' and then wait a moment until you're directed back to Prolific.<br><br>,365599,51,html-button-response,,
27,masc lex 2,,,,,,,0.0-0.0,,,0,,6554,"<p><font size=""3"">DESCRIPTION: You are invited to participate in a research study. Its general purpose is to understand how people perceive written stimuli. You will be asked to read a series of sentences and provide judgments about the social characteristics of the speakers of these sentences. <br><br>RISKS AND BENEFITS: There are no known risks, costs, or discomforts in this study and this judgment is based on a large body of experiments with the same or similar procedures with people of similar ages, sex, origins, etc.  We cannot and do not guarantee or promise that you will receive any benefits from this study. You will help us to understand how people perceive written stimuli.<br><br>PAYMENTS: You will be paid at the posted rate. <br><br>SUBJECT RIGHTS: If you have read this form and have decided to participate in this project, please understand your participation is voluntary and you have the right to withdraw your consent or discontinue participation at any time without penalty or loss of benefits to which you are otherwise entitled. You have the right to refuse to answer particular questions. Your individual privacy will be maintained in all published and written data resulting from the study. <br><br> CONTACT INFORMATION: If you have any questions, concerns or complaints about this research study, its procedures, risks and benefits, you should contact the Protocol Director Meghan Sumner at (650)-725-9336. If you are not satisfied with how this study is being conducted, or if you have any concerns, complaints, or general questions about the research or your rights as a participant, please contact the Stanford Institutional Review Board (IRB) to speak to someone independent of the research team at (650)-723-2480 or toll free at 1-866-680-2906. You can also write to the Stanford IRB, Stanford University, 3000 El Camino Real, Five Palo Alto Square, 4th Floor, Palo Alto, CA 94306 USA.<br><br>WAIVER OF DOCUMENTATION: If you agree to participate in this research, please continue on to the next page.</font></p>",6571,0,html-button-response,,
27,masc lex 2,,,,,,,0.0-1.0,,,0,,10807,"<p><font size='3'>In this experiment, you will read a series of sentences. Each sentence has been produced by a different speaker. After reading each sentence, you will be asked to rate the social characteristics of its speaker. To rate the social characteristics of a speaker, click along the scale. After providing your rating, you can proceed to the next trial by clicking 'Continue'. Some trials will have comprehension questions. To complete these, click on the button with the correct answer. <br><br>When you're ready to begin, click ‘Start’.</font></p>",17379,1,html-button-response,,
27,masc lex 2,,,"[{'time': 6197, 'location': 0.474}]",,,neutral,0.0-2.0,,,0.474,,9220,"['<p style=""font-weight:bold;"">I can\'t stop laughing -- that was really funny.</p><br><br>How masculine is the speaker of this sentence?<br><br>']",26603,2,html-vas-response,10,
27,masc lex 2,,,"[{'time': 5210, 'location': 0.498}]",,,masc,0.0-3.0,,,0.498,,6239,"['<p style=""font-weight:bold;"">I hear what you\'re saying, bro.</p><br><br>How masculine is the speaker of this sentence?<br><br>']",32844,3,html-vas-response,23,
27,masc lex 2,,,"[{'time': 3413, 'location': 0.514}]",,,non_masc,0.0-4.0,,,0.514,,4580,"['<p style=""font-weight:bold;"">Chase was so tired on Monday.</p><br><br>How masculine is the speaker of this sentence?<br><br>']",37428,4,html-vas-response,6,
27,masc lex 2,correct,2,,,2,,0.0-5.0,,,,button,2791,Who was tired?<br><br>,40221,5,html-multi-response,,
27,masc lex 2,,,"[{'time': 5651, 'location': 0.5}]",,,masc,0.0-6.0,,,0.5,,6740,"['<p style=""font-weight:bold;"">I\'m surprised how delicious that taco was.</p><br><br>How masculine is the speaker of this sentence?<br><br>']",46963,6,html-vas-response,17,
27,masc lex 2,,,"[{'time': 5663.999999999993, 'location': 0.442}]",,,non_masc,0.0-7.0,,,0.442,,6691,"['<p style=""font-weight:bold;"">Girl, you won\'t believe who I bumped into this week.</p><br><br>How masculine is the speaker of this sentence?<br><br>']",53658,7,html-vas-response,2,
27,masc lex 2,incorrect,0,,,1,,0.0-8.0,,,,button,3905,True or False: The speaker expressed that they bumped into someone two weeks ago.<br><br>,57564,8,html-multi-response,,
27,masc lex 2,,,"[{'time': 6033, 'location': 0.512}]",,,non_masc,0.0-9.0,,,0.512,,7189,"['<p style=""font-weight:bold;"">Without a map, we are totally lost.</p><br><br>How masculine is the speaker of this sentence?<br><br>']",64755,9,html-vas-response,5,
27,masc lex 2,correct,1,,,1,,0.0-10.0,,,,button,2338,True or False: The speaker believes they will be lost without a GPS.<br><br>,67095,10,html-multi-response,,
27,masc lex 2,,,"[{'time': 4579, 'location': 0.484}]",,,neutral,0.0-11.0,,,0.484,,5842,"['<p style=""font-weight:bold;"">I hear what you\'re saying, Sam.</p><br><br>How masculine is the speaker of this sentence?<br><br>']",72938,11,html-vas-response,9,
27,masc lex 2,,,"[{'time': 3545.9999999999854, 'location': 0.512}]",,,neutral,0.0-12.0,,,0.512,,4412,"['<p style=""font-weight:bold;"">Some people think that show was very entertaining.</p><br><br>How masculine is the speaker of this sentence?<br><br>']",77353,12,html-vas-response,15,
27,masc lex 2,,,"[{'time': 2548, 'location': 0.504}]",,,neutral,0.0-13.0,,,0.504,,3731,"['<p style=""font-weight:bold;"">My office is fairly boring.</p><br><br>How masculine is the speaker of this sentence?<br><br>']",81086,13,html-vas-response,16,
27,masc lex 2,,,"[{'time': 1692, 'location': 0.516}]",,,masc,0.0-14.0,,,0.516,,2945,"['<p style=""font-weight:bold;"">My bad, I didn\'t see you there.</p><br><br>How masculine is the speaker of this sentence?<br><br>']",84032,14,html-vas-response,21,
27,masc lex 2,,,"[{'time': 2064, 'location': 0.504}]",,,non_masc,0.0-15.0,,,0.504,,3070,"['<p style=""font-weight:bold;"">When is lunch? I\'m literally starving.</p><br><br>How masculine is the speaker of this sentence?<br><br>']",87105,15,html-vas-response,3,
27,masc lex 2,correct,1,,,1,,0.0-16.0,,,,button,2006,What meal is the speaker asking about?<br><br>,89113,16,html-multi-response,,
27,masc lex 2,,,"[{'time': 3266, 'location': 0.498}]",,,non_masc,0.0-17.0,,,0.498,,4333,"['<p style=""font-weight:bold;"">I bought a periwinkle shirt last Friday.</p><br><br>How masculine is the speaker of this sentence?<br><br>']",93449,17,html-vas-response,8,
27,masc lex 2,correct,1,,,1,,0.0-18.0,,,,button,1733,What color shirt did the speaker purchase?<br><br>,95183,18,html-multi-response,,
27,masc lex 2,,,"[{'time': 6635, 'location': 0.3}]",,,masc,0.0-19.0,,,0.3,,7689,"['<p style=""font-weight:bold;"">I think that article was, um, well-researched.</p><br><br>How masculine is the speaker of this sentence?<br><br>']",102874,19,html-vas-response,24,
27,masc lex 2,,,"[{'time': 2343.0000000000146, 'location': 0.5}]",,,non_masc,0.0-20.0,,,0.5,,3696,"['<p style=""font-weight:bold;"">Can I take a peek at your answer? </p><br><br>How masculine is the speaker of this sentence?<br><br>']",106573,20,html-vas-response,1,
27,masc lex 2,correct,1,,,1,,0.0-21.0,,,,button,1968,What did the speaker ask to see?<br><br>,108542,21,html-multi-response,,
27,masc lex 2,,,"[{'time': 3049.0000000000146, 'location': 0.486}]",,,non_masc,0.0-22.0,,,0.486,,4265,"['<p style=""font-weight:bold;"">I see you got new lilac mugs.</p><br><br>How masculine is the speaker of this sentence?<br><br>']",112808,22,html-vas-response,4,
27,masc lex 2,correct,0,,,0,,0.0-23.0,,,,button,1681,What type of dish is the speaker commenting on?<br><br>,114491,23,html-multi-response,,
27,masc lex 2,,,"[{'time': 3079.0000000000146, 'location': 0.508}]",,,neutral,0.0-24.0,,,0.508,,4028,"['<p style=""font-weight:bold;"">I\'m surprised how tasty that burger was.</p><br><br>How masculine is the speaker of this sentence?<br><br>']",118521,24,html-vas-response,14,
27,masc lex 2,,,"[{'time': 2896, 'location': 0.522}]",,,masc,0.0-25.0,,,0.522,,3946,"['<p style=""font-weight:bold;"">I feel sorry for the dumb thing.</p><br><br>How masculine is the speaker of this sentence?<br><br>']",122469,25,html-vas-response,22,
27,masc lex 2,,,"[{'time': 2021, 'location': 0.52}]",,,masc,0.0-26.0,,,0.52,,2778,"['<p style=""font-weight:bold;"">That\'s a goofy thing to say.</p><br><br>How masculine is the speaker of this sentence?<br><br>']",125249,26,html-vas-response,20,
27,masc lex 2,,,"[{'time': 1423.0000000000146, 'location': 0.494}]",,,masc,0.0-27.0,,,0.494,,2408,"['<p style=""font-weight:bold;"">Your presentation sounded good.</p><br><br>How masculine is the speaker of this sentence?<br><br>']",127660,27,html-vas-response,18,
27,masc lex 2,,,"[{'time': 3412.9999999999854, 'location': 0.522}]",,,non_masc,0.0-28.0,,,0.522,,4388,"['<p style=""font-weight:bold;"">At the beach, I took the loveliest picture of the sunset.</p><br><br>How masculine is the speaker of this sentence?<br><br>']",132049,28,html-vas-response,7,
27,masc lex 2,correct,0,,,0,,0.0-29.0,,,,button,1725,What did the speaker photograph?<br><br>,133776,29,html-multi-response,,
27,masc lex 2,,,"[{'time': 4921, 'location': 0.50003125}]",,,neutral,0.0-30.0,,,0.50003125,,6494,"['<p style=""font-weight:bold;"">My sister really wanted to let you know that she will be late. </p><br><br>How masculine is the speaker of this sentence?<br><br>']",140272,30,html-vas-response,12,
27,masc lex 2,,,"[{'time': 3744.999999999971, 'location': 0.52}]",,,neutral,0.0-31.0,,,0.52,,4699,"['<p style=""font-weight:bold;"">My workout yesterday had me feeling exhausted.</p><br><br>How masculine is the speaker of this sentence?<br><br>']",144974,31,html-vas-response,11,
27,masc lex 2,,,"[{'time': 2850, 'location': 0.506}]",,,masc,0.0-32.0,,,0.506,,3929,"['<p style=""font-weight:bold;"">The party last night was really sick.</p><br><br>How masculine is the speaker of this sentence?<br><br>']",148906,32,html-vas-response,19,
27,masc lex 2,,,"[{'time': 2025, 'location': 0.51}]",,,neutral,0.0-33.0,,,0.51,,3326,"['<p style=""font-weight:bold;"">I bought a new shirt last Friday.</p><br><br>How masculine is the speaker of this sentence?<br><br>']",152235,33,html-vas-response,13,
27,masc lex 2,,,,,,,0.0-34.0,,,0,,9376,"<p><font size='3'>You have completed the experimental trials. You will now complete a short questionnaire. During the questionnaire, you will see a series of statements alongside a scale. Click along the scale to indicate how much you agree or disagree with the statement. Upon completion of the questionnaire, you will be asked to fill out an optional demographic survey. <br><br>When you're ready to begin the questionnaire, click ‘Continue’.</font></p>",161613,34,html-button-response,,
27,masc lex 2,,,"[{'time': 4064, 'location': 0.002}]",POSITIVE,,,0.0-35.0-0.0,,,0.002,,7413,Some types of work are just not appropriate for women.<br><br>,169027,35,html-vas-response,,
27,masc lex 2,,,"[{'time': 3736, 'location': 0.00203125}]",POSITIVE,,,0.0-35.0-0.1,,,0.00203125,,4829,"For many important jobs, it is better to choose men instead of women.<br><br>",173859,36,html-vas-response,,
27,masc lex 2,,,"[{'time': 5771.000000000029, 'location': 0.48603125}]",POSITIVE,,,0.0-35.0-0.2,,,0.48603125,,6855,Mothers should make most decisions about how children are brought up.<br><br>,180717,37,html-vas-response,,
27,masc lex 2,,,"[{'time': 3335, 'location': 0.004}]",POSITIVE,,,0.0-35.0-0.3,,,0.004,,4455,Girls should be protected and watched over more than boys.<br><br>,185174,38,html-vas-response,,
27,masc lex 2,,,"[{'time': 6215, 'location': 0.99403125}]",NEGATIVE,,,0.0-35.0-0.4,,,0.99403125,,7682,People can be both aggressive and nurturing regardless of sex.<br><br>,192859,39,html-vas-response,,
27,masc lex 2,,,"[{'time': 5540.000000000029, 'location': 0.996}]",NEGATIVE,,,0.0-35.0-0.5,,,0.996,,6947,Tasks around the house should not be assigned by sex.<br><br>,199807,40,html-vas-response,,
27,masc lex 2,,,"[{'time': 4776.000000000029, 'location': 0.004}]",POSITIVE,,,0.0-35.0-0.6,,,0.004,,5952,Only some types of work are appropriate for both men and women.<br><br>,205761,41,html-vas-response,,
27,masc lex 2,,,"[{'time': 4134.999999999971, 'location': 0.998}]",NEGATIVE,,,0.0-35.0-0.7,,,0.998,,5238,People should be treated the same regardless of their sex.<br><br>,211002,42,html-vas-response,,
27,masc lex 2,,,"[{'time': 3861, 'location': 0.00803125}, {'time': 5392, 'location': 0.00403125}]",POSITIVE,,,0.0-35.0-0.8,,,0.00403125,,6829,A father’s major responsibility is to provide financially for his children.<br><br>,217834,43,html-vas-response,,
27,masc lex 2,,,"[{'time': 8361.99999999997, 'location': 0.49603125}]",NEGATIVE,,,0.0-35.0-0.9,,,0.49603125,,9659,We should stop thinking about whether people are male or female and focus on other characteristics.<br><br>,227495,44,html-vas-response,,
27,masc lex 2,,,"[{'time': 7569, 'location': 0.008}, {'time': 9009, 'location': 0.004}]",POSITIVE,,,0.0-35.0-0.10,,,0.004,,,Mothers should work only if necessary.<br><br>,237497,45,html-vas-response,,
27,masc lex 2,,,"[{'time': 9395.00000000003, 'location': 0.998}]",NEGATIVE,,,0.0-35.0-0.11,,,0.998,,,The freedom that children are given should be determined by their age and maturity level and not by their sex.<br><br>,247501,46,html-vas-response,,
27,masc lex 2,,,"[{'time': 5411, 'location': 0.994}, {'time': 7500, 'location': 0.498}]",POSITIVE,,,0.0-35.0-0.12,,,0.498,,8475,Men are more sexual than women.<br><br>,255978,47,html-vas-response,,
27,masc lex 2,,,,,,,0.0-36.0,,,0,,2189,"<p><font size='3'>You have completed the questionnaire. There will now be an optional survey. Please answer the following questions if you feel comfortable doing so. <br><br>When you're ready to procede, click ‘Continue’.</font></p>",258168,48,html-button-response,,
27,masc lex 2,,,,,,,0.0-37.0,,[0],{'Q0': 0},,3690,,261860,49,survey-likert,,
27,masc lex 2,[],,,,,,0.0-38.0,,,"{'age': '32', 'P0_Q0': None, 'enjoy': 'An average experiment', 'gender': 'Female', 'correct': 'Yes', 'payment': 'The payment was fair', 'comments': '', 'language': 'English', 'education': 'Hold a higher degree'}",,28674,,290700,50,survey,,
27,masc lex 2,,,,,,,0.0-39.0,,,0,,2608,Thank you for your time! Please click 'Finish' and then wait a moment until you're directed back to Prolific.<br><br>,293309,51,html-button-response,,
81,masc lex 2,,,,,,,0.0-0.0,,,0,,61186,"<p><font size=""3"">DESCRIPTION: You are invited to participate in a research study. Its general purpose is to understand how people perceive written stimuli. You will be asked to read a series of sentences and provide judgments about the social characteristics of the speakers of these sentences. <br><br>RISKS AND BENEFITS: There are no known risks, costs, or discomforts in this study and this judgment is based on a large body of experiments with the same or similar procedures with people of similar ages, sex, origins, etc.  We cannot and do not guarantee or promise that you will receive any benefits from this study. You will help us to understand how people perceive written stimuli.<br><br>PAYMENTS: You will be paid at the posted rate. <br><br>SUBJECT RIGHTS: If you have read this form and have decided to participate in this project, please understand your participation is voluntary and you have the right to withdraw your consent or discontinue participation at any time without penalty or loss of benefits to which you are otherwise entitled. You have the right to refuse to answer particular questions. Your individual privacy will be maintained in all published and written data resulting from the study. <br><br> CONTACT INFORMATION: If you have any questions, concerns or complaints about this research study, its procedures, risks and benefits, you should contact the Protocol Director Meghan Sumner at (650)-725-9336. If you are not satisfied with how this study is being conducted, or if you have any concerns, complaints, or general questions about the research or your rights as a participant, please contact the Stanford Institutional Review Board (IRB) to speak to someone independent of the research team at (650)-723-2480 or toll free at 1-866-680-2906. You can also write to the Stanford IRB, Stanford University, 3000 El Camino Real, Five Palo Alto Square, 4th Floor, Palo Alto, CA 94306 USA.<br><br>WAIVER OF DOCUMENTATION: If you agree to participate in this research, please continue on to the next page.</font></p>",61198,0,html-button-response,,
81,masc lex 2,,,,,,,0.0-1.0,,,0,,15336,"<p><font size='3'>In this experiment, you will read a series of sentences. Each sentence has been produced by a different speaker. After reading each sentence, you will be asked to rate the social characteristics of its speaker. To rate the social characteristics of a speaker, click along the scale. After providing your rating, you can proceed to the next trial by clicking 'Continue'. Some trials will have comprehension questions. To complete these, click on the button with the correct answer. <br><br>When you're ready to begin, click ‘Start’.</font></p>",76541,1,html-button-response,,
81,masc lex 2,,,"[{'time': 5892.9000000003725, 'location': 0.02701138873860589}, {'time': 8827.299999998882, 'location': 0.11301189264780848}]",,,non_masc,0.0-2.0,,,0.113011893,,,"['<p style=""font-weight:bold;"">At the beach, I took the loveliest picture of the sunset.</p><br><br>How masculine is the speaker of this sentence?<br><br>']",86558,2,html-vas-response,7,
81,masc lex 2,incorrect,,,,0,,0.0-3.0,,,,,,What did the speaker photograph?<br><br>,96565,3,html-multi-response,,
81,masc lex 2,,,"[{'time': 3799.300000000745, 'location': 0.4990141543798109}]",,,masc,0.0-4.0,,,0.499014154,,7091,"['<p style=""font-weight:bold;"">I hear what you\'re saying, bro.</p><br><br>How masculine is the speaker of this sentence?<br><br>']",103669,4,html-vas-response,23,
81,masc lex 2,,,"[{'time': 2373.7999999988824, 'location': 0.4890140957857175}]",,,neutral,0.0-5.0,,,0.489014096,,5024,"['<p style=""font-weight:bold;"">My office is fairly boring.</p><br><br>How masculine is the speaker of this sentence?<br><br>']",108697,5,html-vas-response,16,
81,masc lex 2,,,"[{'time': 3279.60000000149, 'location': 0.013011306706875236}]",,,masc,0.0-6.0,,,0.013011307,,4713,"['<p style=""font-weight:bold;"">I\'m surprised how delicious that taco was.</p><br><br>How masculine is the speaker of this sentence?<br><br>']",113414,6,html-vas-response,17,
81,masc lex 2,,,"[{'time': 5911.5, 'location': 0.01101129498805657}]",,,non_masc,0.0-7.0,,,0.011011295,,6872,"['<p style=""font-weight:bold;"">I see you got new lilac mugs.</p><br><br>How masculine is the speaker of this sentence?<br><br>']",120294,7,html-vas-response,4,
81,masc lex 2,correct,0,,,0,,0.0-8.0,,,,button,5106,What type of dish is the speaker commenting on?<br><br>,125404,8,html-multi-response,,
81,masc lex 2,,,"[{'time': 4718.0999999996275, 'location': 0.4890140957857175}]",,,neutral,0.0-9.0,,,0.489014096,,5662,"['<p style=""font-weight:bold;"">I hear what you\'re saying, Sam.</p><br><br>How masculine is the speaker of this sentence?<br><br>']",131074,9,html-vas-response,9,
81,masc lex 2,,,"[{'time': 3876.300000000745, 'location': 0.009011283269237906}]",,,non_masc,0.0-10.0,,,0.009011283,,4939,"['<p style=""font-weight:bold;"">I bought a periwinkle shirt last Friday.</p><br><br>How masculine is the speaker of this sentence?<br><br>']",136018,10,html-vas-response,8,
81,masc lex 2,correct,1,,,1,,0.0-11.0,,,,button,3105,What color shirt did the speaker purchase?<br><br>,139128,11,html-multi-response,,
81,masc lex 2,,,"[{'time': 8595.699999999255, 'location': 0.22501254890165373}]",,,neutral,0.0-12.0,,,0.225012549,,9707,"['<p style=""font-weight:bold;"">My sister really wanted to let you know that she will be late. </p><br><br>How masculine is the speaker of this sentence?<br><br>']",148842,12,html-vas-response,12,
81,masc lex 2,,,"[{'time': 2053.9000000003725, 'location': 0.04301148248915521}, {'time': 3124.5, 'location': 0.013011306706875236}]",,,neutral,0.0-13.0,,,0.013011307,,6301,"['<p style=""font-weight:bold;"">I\'m surprised how tasty that burger was.</p><br><br>How masculine is the speaker of this sentence?<br><br>']",155150,13,html-vas-response,14,
81,masc lex 2,,,"[{'time': 3376.800000000745, 'location': 0.4890140957857175}]",,,non_masc,0.0-14.0,,,0.489014096,,5149,"['<p style=""font-weight:bold;"">Chase was so tired on Monday.</p><br><br>How masculine is the speaker of this sentence?<br><br>']",160306,14,html-vas-response,6,
81,masc lex 2,correct,2,,,2,,0.0-15.0,,,,button,1436,Who was tired?<br><br>,161747,15,html-multi-response,,
81,masc lex 2,,,"[{'time': 3545.4000000003725, 'location': 0.009011283269237906}]",,,non_masc,0.0-16.0,,,0.009011283,,4838,"['<p style=""font-weight:bold;"">Girl, you won\'t believe who I bumped into this week.</p><br><br>How masculine is the speaker of this sentence?<br><br>']",166591,16,html-vas-response,2,
81,masc lex 2,correct,1,,,1,,0.0-17.0,,,,button,5962,True or False: The speaker expressed that they bumped into someone two weeks ago.<br><br>,172559,17,html-multi-response,,
81,masc lex 2,,,"[{'time': 3388, 'location': 0.007011271550419241}, {'time': 7001.799999998882, 'location': 0.13901204499245112}]",,,masc,0.0-18.0,,,0.139012045,,8782,"['<p style=""font-weight:bold;"">I think that article was, um, well-researched.</p><br><br>How masculine is the speaker of this sentence?<br><br>']",181346,18,html-vas-response,24,
81,masc lex 2,,,"[{'time': 3597.7999999988824, 'location': 0.16101217389945643}]",,,neutral,0.0-19.0,,,0.161012174,,5110,"['<p style=""font-weight:bold;"">I can\'t stop laughing -- that was really funny.</p><br><br>How masculine is the speaker of this sentence?<br><br>']",186464,19,html-vas-response,10,
81,masc lex 2,,,"[{'time': 4755.300000000745, 'location': 0.18101229108764308}, {'time': 8261.400000000373, 'location': 0.0030112481127819108}]",,,non_masc,0.0-20.0,,,0.003011248,,9120,"['<p style=""font-weight:bold;"">Without a map, we are totally lost.</p><br><br>How masculine is the speaker of this sentence?<br><br>']",195591,20,html-vas-response,5,
81,masc lex 2,correct,1,,,1,,0.0-21.0,,,,button,2817,True or False: The speaker believes they will be lost without a GPS.<br><br>,198410,21,html-multi-response,,
81,masc lex 2,,,"[{'time': 3261.4000000003725, 'location': 0.5150142481303601}]",,,masc,0.0-22.0,,,0.515014248,,4686,"['<p style=""font-weight:bold;"">Your presentation sounded good.</p><br><br>How masculine is the speaker of this sentence?<br><br>']",203104,22,html-vas-response,18,
81,masc lex 2,,,"[{'time': 6502.200000001118, 'location': 0.4870140840668988}, {'time': 8587.800000000745, 'location': 0.22301253718283504}]",,,neutral,0.0-23.0,,,0.223012537,,9196,"['<p style=""font-weight:bold;"">Some people think that show was very entertaining.</p><br><br>How masculine is the speaker of this sentence?<br><br>']",212305,23,html-vas-response,15,
81,masc lex 2,,,"[{'time': 2297.4000000003725, 'location': 0.4990141543798109}]",,,masc,0.0-24.0,,,0.499014154,,6951,"['<p style=""font-weight:bold;"">I feel sorry for the dumb thing.</p><br><br>How masculine is the speaker of this sentence?<br><br>']",219265,24,html-vas-response,22,
81,masc lex 2,,,"[{'time': 2578.800000000745, 'location': 0.001011236393963246}]",,,non_masc,0.0-25.0,,,0.001011236,,3807,"['<p style=""font-weight:bold;"">When is lunch? I\'m literally starving.</p><br><br>How masculine is the speaker of this sentence?<br><br>']",223079,25,html-vas-response,3,
81,masc lex 2,correct,1,,,1,,0.0-26.0,,,,button,3422,What meal is the speaker asking about?<br><br>,226505,26,html-multi-response,,
81,masc lex 2,,,"[{'time': 3611, 'location': 0.18101229108764308}]",,,non_masc,0.0-27.0,,,0.181012291,,6872,"['<p style=""font-weight:bold;"">Can I take a peek at your answer? </p><br><br>How masculine is the speaker of this sentence?<br><br>']",233384,27,html-vas-response,1,
81,masc lex 2,correct,1,,,1,,0.0-28.0,,,,button,3083,What did the speaker ask to see?<br><br>,236470,28,html-multi-response,,
81,masc lex 2,,,"[{'time': 2537.7000000011176, 'location': 0.4990141543798109}]",,,neutral,0.0-29.0,,,0.499014154,,5584,"['<p style=""font-weight:bold;"">I bought a new shirt last Friday.</p><br><br>How masculine is the speaker of this sentence?<br><br>']",242062,29,html-vas-response,13,
81,masc lex 2,,,"[{'time': 4951.200000001118, 'location': 0.2270125606204724}]",,,masc,0.0-30.0,,,0.227012561,,6055,"['<p style=""font-weight:bold;"">My bad, I didn\'t see you there.</p><br><br>How masculine is the speaker of this sentence?<br><br>']",248126,30,html-vas-response,21,
81,masc lex 2,,,"[{'time': 3914.300000000745, 'location': 0.21901251374519773}]",,,masc,0.0-31.0,,,0.219012514,,4907,"['<p style=""font-weight:bold;"">That\'s a goofy thing to say.</p><br><br>How masculine is the speaker of this sentence?<br><br>']",253039,31,html-vas-response,20,
81,masc lex 2,,,"[{'time': 2380.5999999996275, 'location': 0.23301259577692837}]",,,masc,0.0-32.0,,,0.233012596,,5940,"['<p style=""font-weight:bold;"">The party last night was really sick.</p><br><br>How masculine is the speaker of this sentence?<br><br>']",258984,32,html-vas-response,19,
81,masc lex 2,,,"[{'time': 2990, 'location': 0.4770140254728055}, {'time': 7548.799999998882, 'location': 0.21301247858874173}]",,,neutral,0.0-33.0,,,0.213012479,,8602,"['<p style=""font-weight:bold;"">My workout yesterday had me feeling exhausted.</p><br><br>How masculine is the speaker of this sentence?<br><br>']",267589,33,html-vas-response,11,
81,masc lex 2,,,,,,,0.0-34.0,,,0,,12613,"<p><font size='3'>You have completed the experimental trials. You will now complete a short questionnaire. During the questionnaire, you will see a series of statements alongside a scale. Click along the scale to indicate how much you agree or disagree with the statement. Upon completion of the questionnaire, you will be asked to fill out an optional demographic survey. <br><br>When you're ready to begin the questionnaire, click ‘Continue’.</font></p>",280204,34,html-button-response,,
81,masc lex 2,,,"[{'time': 4778.299999998882, 'location': 0.4510138731281629}, {'time': 5502, 'location': 0.4870140840668988}, {'time': 7660.0999999996275, 'location': 0.9950170606468396}]",POSITIVE,,,0.0-35.0-0.0,,,0.995017061,,9266,A father’s major responsibility is to provide financially for his children.<br><br>,289480,35,html-vas-response,,
81,masc lex 2,,,"[{'time': 7796.300000000745, 'location': 0.9770169551774718}, {'time': 8906.200000001118, 'location': 0.9890170254903836}]",NEGATIVE,,,0.0-35.0-0.1,,,0.989017025,,,People can be both aggressive and nurturing regardless of sex.<br><br>,299491,36,html-vas-response,,
81,masc lex 2,,,"[{'time': 3305.199999999255, 'location': 0.987017013771565}]",NEGATIVE,,,0.0-35.0-0.2,,,0.987017014,,,Tasks around the house should not be assigned by sex.<br><br>,309495,37,html-vas-response,,
81,masc lex 2,,,"[{'time': 5420, 'location': 0.9930170489280212}]",POSITIVE,,,0.0-35.0-0.3,,,0.993017049,,7201,Mothers should work only if necessary.<br><br>,316703,38,html-vas-response,,
81,masc lex 2,,,"[{'time': 6797.5999999996275, 'location': 0.01101129498805657}]",NEGATIVE,,,0.0-35.0-0.4,,,0.011011295,,,We should stop thinking about whether people are male or female and focus on other characteristics.<br><br>,326710,39,html-vas-response,,
81,masc lex 2,,,"[{'time': 8020.699999999255, 'location': 0.6790152090734907}, {'time': 9171, 'location': 0.5230142950056348}]",NEGATIVE,,,0.0-35.0-0.5,,,0.00501126,,,The freedom that children are given should be determined by their age and maturity level and not by their sex.<br><br>,336717,40,html-vas-response,,
81,masc lex 2,,,"[{'time': 6386.700000001118, 'location': 0.005011259831600575}]",POSITIVE,,,0.0-35.0-0.6,,,0.00501126,,7403,Mothers should make most decisions about how children are brought up.<br><br>,344124,41,html-vas-response,,
81,masc lex 2,,,"[{'time': 4526.9000000003725, 'location': 0.4950141309421735}]",POSITIVE,,,0.0-35.0-0.7,,,0.495014131,,5914,"For many important jobs, it is better to choose men instead of women.<br><br>",350046,42,html-vas-response,,
81,masc lex 2,,,"[{'time': 4547.300000000745, 'location': 0.4950141309421735}, {'time': 9672.5, 'location': 0.005011259831600575}]",NEGATIVE,,,0.0-35.0-0.8,,,0.00501126,,,People should be treated the same regardless of their sex.<br><br>,360051,43,html-vas-response,,
81,masc lex 2,,,"[{'time': 3406.9000000003725, 'location': 0.9790169668962904}, {'time': 4595.9000000003725, 'location': 0.9930170489280212}]",POSITIVE,,,0.0-35.0-0.9,,,0.993017049,,5777,Only some types of work are appropriate for both men and women.<br><br>,365835,44,html-vas-response,,
81,masc lex 2,,,"[{'time': 2655.2000000011176, 'location': 0.9890170254903836}]",POSITIVE,,,0.0-35.0-0.10,,,0.989017025,,4175,Some types of work are just not appropriate for women.<br><br>,370017,45,html-vas-response,,
81,masc lex 2,,,"[{'time': 3543.800000000745, 'location': 0.987017013771565}]",POSITIVE,,,0.0-35.0-0.11,,,0.987017014,,,Girls should be protected and watched over more than boys.<br><br>,380024,46,html-vas-response,,
81,masc lex 2,,,"[{'time': 2307.10000000149, 'location': 0.5010141660986295}]",POSITIVE,,,0.0-35.0-0.12,,,0.501014166,,4804,Men are more sexual than women.<br><br>,384831,47,html-vas-response,,
81,masc lex 2,,,,,,,0.0-36.0,,,0,,4352,"<p><font size='3'>You have completed the questionnaire. There will now be an optional survey. Please answer the following questions if you feel comfortable doing so. <br><br>When you're ready to procede, click ‘Continue’.</font></p>",389185,48,html-button-response,,
81,masc lex 2,,,,,,,0.0-37.0,,[0],{'Q0': 2},,5279,,394473,49,survey-likert,,
81,masc lex 2,[],,,,,,0.0-38.0,,,"{'age': '27', 'P0_Q0': None, 'enjoy': 'Better than the average experiment', 'gender': 'Male', 'correct': 'Yes', 'payment': 'The payment was fair', 'comments': ""I wasn't able to select an answer a couple of times because the questions automatically advanced, which I didn't realize. Other than that, the study was very engaging and easy to understand."", 'language': 'English', 'education': 'Graduated high school'}",,172797,,567449,50,survey,,
81,masc lex 2,,,,,,,0.0-39.0,,,0,,2083,Thank you for your time! Please click 'Finish' and then wait a moment until you're directed back to Prolific.<br><br>,569535,51,html-button-response,,
84,masc lex 2,,,,,,,0.0-0.0,,,0,,4283,"<p><font size=""3"">DESCRIPTION: You are invited to participate in a research study. Its general purpose is to understand how people perceive written stimuli. You will be asked to read a series of sentences and provide judgments about the social characteristics of the speakers of these sentences. <br><br>RISKS AND BENEFITS: There are no known risks, costs, or discomforts in this study and this judgment is based on a large body of experiments with the same or similar procedures with people of similar ages, sex, origins, etc.  We cannot and do not guarantee or promise that you will receive any benefits from this study. You will help us to understand how people perceive written stimuli.<br><br>PAYMENTS: You will be paid at the posted rate. <br><br>SUBJECT RIGHTS: If you have read this form and have decided to participate in this project, please understand your participation is voluntary and you have the right to withdraw your consent or discontinue participation at any time without penalty or loss of benefits to which you are otherwise entitled. You have the right to refuse to answer particular questions. Your individual privacy will be maintained in all published and written data resulting from the study. <br><br> CONTACT INFORMATION: If you have any questions, concerns or complaints about this research study, its procedures, risks and benefits, you should contact the Protocol Director Meghan Sumner at (650)-725-9336. If you are not satisfied with how this study is being conducted, or if you have any concerns, complaints, or general questions about the research or your rights as a participant, please contact the Stanford Institutional Review Board (IRB) to speak to someone independent of the research team at (650)-723-2480 or toll free at 1-866-680-2906. You can also write to the Stanford IRB, Stanford University, 3000 El Camino Real, Five Palo Alto Square, 4th Floor, Palo Alto, CA 94306 USA.<br><br>WAIVER OF DOCUMENTATION: If you agree to participate in this research, please continue on to the next page.</font></p>",4286,0,html-button-response,,
84,masc lex 2,,,,,,,0.0-1.0,,,0,,8546,"<p><font size='3'>In this experiment, you will read a series of sentences. Each sentence has been produced by a different speaker. After reading each sentence, you will be asked to rate the social characteristics of its speaker. To rate the social characteristics of a speaker, click along the scale. After providing your rating, you can proceed to the next trial by clicking 'Continue'. Some trials will have comprehension questions. To complete these, click on the button with the correct answer. <br><br>When you're ready to begin, click ‘Start’.</font></p>",12833,1,html-button-response,,
84,masc lex 2,,,"[{'time': 4789.70000000298, 'location': 0.196}, {'time': 5465.20000000298, 'location': 0.18}]",,,neutral,0.0-2.0,,,0.18,,9544,"['<p style=""font-weight:bold;"">I hear what you\'re saying, Sam.</p><br><br>How masculine is the speaker of this sentence?<br><br>']",22381,2,html-vas-response,9,
84,masc lex 2,,,"[{'time': 4161.800000000745, 'location': 0.77403125}, {'time': 4938.300000000745, 'location': 0.79603125}]",,,neutral,0.0-3.0,,,0.79603125,,5893,"['<p style=""font-weight:bold;"">My sister really wanted to let you know that she will be late. </p><br><br>How masculine is the speaker of this sentence?<br><br>']",28275,3,html-vas-response,12,
84,masc lex 2,,,"[{'time': 2545.5, 'location': 0.216}]",,,masc,0.0-4.0,,,0.216,,3405,"['<p style=""font-weight:bold;"">That\'s a goofy thing to say.</p><br><br>How masculine is the speaker of this sentence?<br><br>']",31680,4,html-vas-response,20,
84,masc lex 2,,,"[{'time': 2622.89999999851, 'location': 0.072}]",,,non_masc,0.0-5.0,,,0.072,,3948,"['<p style=""font-weight:bold;"">At the beach, I took the loveliest picture of the sunset.</p><br><br>How masculine is the speaker of this sentence?<br><br>']",35629,5,html-vas-response,7,
84,masc lex 2,correct,0,,,0,,0.0-6.0,,,,button,8534,What did the speaker photograph?<br><br>,44164,6,html-multi-response,,
84,masc lex 2,,,"[{'time': 3715.199999999255, 'location': 0.832}]",,,neutral,0.0-7.0,,,0.832,,4619,"['<p style=""font-weight:bold;"">My workout yesterday had me feeling exhausted.</p><br><br>How masculine is the speaker of this sentence?<br><br>']",48784,7,html-vas-response,11,
84,masc lex 2,,,"[{'time': 2316.39999999851, 'location': 0.212}]",,,non_masc,0.0-8.0,,,0.212,,3248,"['<p style=""font-weight:bold;"">Can I take a peek at your answer? </p><br><br>How masculine is the speaker of this sentence?<br><br>']",52033,8,html-vas-response,1,
84,masc lex 2,correct,1,,,1,,0.0-9.0,,,,button,2204,What did the speaker ask to see?<br><br>,54238,9,html-multi-response,,
84,masc lex 2,,,"[{'time': 2605.5, 'location': 0.1}]",,,masc,0.0-10.0,,,0.1,,3534,"['<p style=""font-weight:bold;"">I think that article was, um, well-researched.</p><br><br>How masculine is the speaker of this sentence?<br><br>']",57773,10,html-vas-response,24,
84,masc lex 2,,,"[{'time': 2128.800000000745, 'location': 0.524}]",,,neutral,0.0-11.0,,,0.524,,2631,"['<p style=""font-weight:bold;"">I can\'t stop laughing -- that was really funny.</p><br><br>How masculine is the speaker of this sentence?<br><br>']",60405,11,html-vas-response,10,
84,masc lex 2,,,"[{'time': 2241.39999999851, 'location': 0.396}]",,,masc,0.0-12.0,,,0.396,,2913,"['<p style=""font-weight:bold;"">I\'m surprised how delicious that taco was.</p><br><br>How masculine is the speaker of this sentence?<br><br>']",63319,12,html-vas-response,17,
84,masc lex 2,,,"[{'time': 1869.9000000022352, 'location': 0.042}]",,,non_masc,0.0-13.0,,,0.042,,2395,"['<p style=""font-weight:bold;"">I bought a periwinkle shirt last Friday.</p><br><br>How masculine is the speaker of this sentence?<br><br>']",65715,13,html-vas-response,8,
84,masc lex 2,correct,1,,,1,,0.0-14.0,,,,button,1828,What color shirt did the speaker purchase?<br><br>,67544,14,html-multi-response,,
84,masc lex 2,,,"[{'time': 2394.5, 'location': 0.828}, {'time': 2895.199999999255, 'location': 0.738}]",,,non_masc,0.0-15.0,,,0.738,,3799,"['<p style=""font-weight:bold;"">When is lunch? I\'m literally starving.</p><br><br>How masculine is the speaker of this sentence?<br><br>']",71344,15,html-vas-response,3,
84,masc lex 2,correct,1,,,1,,0.0-16.0,,,,button,1357,What meal is the speaker asking about?<br><br>,72701,16,html-multi-response,,
84,masc lex 2,,,"[{'time': 3603.10000000149, 'location': 0.272}]",,,non_masc,0.0-17.0,,,0.272,,4181,"['<p style=""font-weight:bold;"">Without a map, we are totally lost.</p><br><br>How masculine is the speaker of this sentence?<br><br>']",76883,17,html-vas-response,5,
84,masc lex 2,correct,1,,,1,,0.0-18.0,,,,button,4919,True or False: The speaker believes they will be lost without a GPS.<br><br>,81803,18,html-multi-response,,
84,masc lex 2,,,"[{'time': 2670.300000000745, 'location': 0.172}]",,,non_masc,0.0-19.0,,,0.172,,3846,"['<p style=""font-weight:bold;"">I see you got new lilac mugs.</p><br><br>How masculine is the speaker of this sentence?<br><br>']",85651,19,html-vas-response,4,
84,masc lex 2,correct,0,,,0,,0.0-20.0,,,,button,1623,What type of dish is the speaker commenting on?<br><br>,87274,20,html-multi-response,,
84,masc lex 2,,,"[{'time': 2893, 'location': 0.524}]",,,masc,0.0-21.0,,,0.524,,3505,"['<p style=""font-weight:bold;"">My bad, I didn\'t see you there.</p><br><br>How masculine is the speaker of this sentence?<br><br>']",90780,21,html-vas-response,21,
84,masc lex 2,,,"[{'time': 3416.199999999255, 'location': 0.232}]",,,neutral,0.0-22.0,,,0.232,,4040,"['<p style=""font-weight:bold;"">I bought a new shirt last Friday.</p><br><br>How masculine is the speaker of this sentence?<br><br>']",94821,22,html-vas-response,13,
84,masc lex 2,,,"[{'time': 2990.800000000745, 'location': 0.044}]",,,non_masc,0.0-23.0,,,0.044,,3935,"['<p style=""font-weight:bold;"">Girl, you won\'t believe who I bumped into this week.</p><br><br>How masculine is the speaker of this sentence?<br><br>']",98756,23,html-vas-response,2,
84,masc lex 2,incorrect,0,,,1,,0.0-24.0,,,,button,4263,True or False: The speaker expressed that they bumped into someone two weeks ago.<br><br>,103021,24,html-multi-response,,
84,masc lex 2,,,"[{'time': 2603, 'location': 0.996}]",,,masc,0.0-25.0,,,0.996,,3777,"['<p style=""font-weight:bold;"">I hear what you\'re saying, bro.</p><br><br>How masculine is the speaker of this sentence?<br><br>']",106798,25,html-vas-response,23,
84,masc lex 2,,,"[{'time': 1709.699999999255, 'location': 0.49}]",,,neutral,0.0-26.0,,,0.49,,2230,"['<p style=""font-weight:bold;"">My office is fairly boring.</p><br><br>How masculine is the speaker of this sentence?<br><br>']",109029,26,html-vas-response,16,
84,masc lex 2,,,"[{'time': 3806.300000000745, 'location': 0.47}]",,,non_masc,0.0-27.0,,,0.47,,4516,"['<p style=""font-weight:bold;"">Chase was so tired on Monday.</p><br><br>How masculine is the speaker of this sentence?<br><br>']",113546,27,html-vas-response,6,
84,masc lex 2,correct,2,,,2,,0.0-28.0,,,,button,1286,Who was tired?<br><br>,114833,28,html-multi-response,,
84,masc lex 2,,,"[{'time': 1427.0999999977648, 'location': 0.754}]",,,masc,0.0-29.0,,,0.754,,2147,"['<p style=""font-weight:bold;"">Your presentation sounded good.</p><br><br>How masculine is the speaker of this sentence?<br><br>']",116980,29,html-vas-response,18,
84,masc lex 2,,,"[{'time': 1730.199999999255, 'location': 0.17}]",,,masc,0.0-30.0,,,0.17,,2493,"['<p style=""font-weight:bold;"">I feel sorry for the dumb thing.</p><br><br>How masculine is the speaker of this sentence?<br><br>']",119475,30,html-vas-response,22,
84,masc lex 2,,,"[{'time': 1275.5999999977648, 'location': 0.764}]",,,neutral,0.0-31.0,,,0.764,,1745,"['<p style=""font-weight:bold;"">I\'m surprised how tasty that burger was.</p><br><br>How masculine is the speaker of this sentence?<br><br>']",121221,31,html-vas-response,14,
84,masc lex 2,,,"[{'time': 2299.300000000745, 'location': 0.992}]",,,masc,0.0-32.0,,,0.992,,2931,"['<p style=""font-weight:bold;"">The party last night was really sick.</p><br><br>How masculine is the speaker of this sentence?<br><br>']",124153,32,html-vas-response,19,
84,masc lex 2,,,"[{'time': 2621.5, 'location': 0.228}]",,,neutral,0.0-33.0,,,0.228,,3370,"['<p style=""font-weight:bold;"">Some people think that show was very entertaining.</p><br><br>How masculine is the speaker of this sentence?<br><br>']",127524,33,html-vas-response,15,
84,masc lex 2,,,,,,,0.0-34.0,,,0,,3114,"<p><font size='3'>You have completed the experimental trials. You will now complete a short questionnaire. During the questionnaire, you will see a series of statements alongside a scale. Click along the scale to indicate how much you agree or disagree with the statement. Upon completion of the questionnaire, you will be asked to fill out an optional demographic survey. <br><br>When you're ready to begin the questionnaire, click ‘Continue’.</font></p>",130638,34,html-button-response,,
84,masc lex 2,,,"[{'time': 2358.800000000745, 'location': 0.912}, {'time': 3304, 'location': 0.792}, {'time': 3697.5, 'location': 0.852}]",NEGATIVE,,,0.0-35.0-0.0,,,0.852,,4395,People should be treated the same regardless of their sex.<br><br>,135035,35,html-vas-response,,
84,masc lex 2,,,"[{'time': 1645.5, 'location': 0.99603125}]",NEGATIVE,,,0.0-35.0-0.1,,,0.99603125,,2326,People can be both aggressive and nurturing regardless of sex.<br><br>,137362,36,html-vas-response,,
84,masc lex 2,,,"[{'time': 5286.10000000149, 'location': 0.20603125}]",POSITIVE,,,0.0-35.0-0.2,,,0.20603125,,5894,A father’s major responsibility is to provide financially for his children.<br><br>,143258,37,html-vas-response,,
84,masc lex 2,,,"[{'time': 4351.699999999255, 'location': 0.494}]",POSITIVE,,,0.0-35.0-0.3,,,0.494,,4957,Men are more sexual than women.<br><br>,148215,38,html-vas-response,,
84,masc lex 2,,,"[{'time': 2924, 'location': 0.83403125}]",NEGATIVE,,,0.0-35.0-0.4,,,0.83403125,,3824,We should stop thinking about whether people are male or female and focus on other characteristics.<br><br>,152040,39,html-vas-response,,
84,masc lex 2,,,"[{'time': 1942.5, 'location': 0.968}]",POSITIVE,,,0.0-35.0-0.5,,,0.968,,2926,Only some types of work are appropriate for both men and women.<br><br>,154967,40,html-vas-response,,
84,masc lex 2,,,"[{'time': 1642.699999999255, 'location': 0.878}, {'time': 2100.89999999851, 'location': 0.954}]",POSITIVE,,,0.0-35.0-0.6,,,0.954,,2779,Some types of work are just not appropriate for women.<br><br>,157749,41,html-vas-response,,
84,masc lex 2,,,"[{'time': 2087.699999999255, 'location': 0.18803125}]",POSITIVE,,,0.0-35.0-0.7,,,0.18803125,,2570,Mothers should make most decisions about how children are brought up.<br><br>,160319,42,html-vas-response,,
84,masc lex 2,,,"[{'time': 2189.79999999702, 'location': 0.104}]",POSITIVE,,,0.0-35.0-0.8,,,0.104,,2983,Mothers should work only if necessary.<br><br>,163303,43,html-vas-response,,
84,masc lex 2,,,"[{'time': 1853.300000000745, 'location': 0.984}]",NEGATIVE,,,0.0-35.0-0.9,,,0.984,,2454,Tasks around the house should not be assigned by sex.<br><br>,165758,44,html-vas-response,,
84,masc lex 2,,,"[{'time': 2613.10000000149, 'location': 0.916}]",NEGATIVE,,,0.0-35.0-0.10,,,0.916,,3467,The freedom that children are given should be determined by their age and maturity level and not by their sex.<br><br>,169225,45,html-vas-response,,
84,masc lex 2,,,"[{'time': 2128.10000000149, 'location': 0.06203125}]",POSITIVE,,,0.0-35.0-0.11,,,0.06203125,,2664,"For many important jobs, it is better to choose men instead of women.<br><br>",171890,46,html-vas-response,,
84,masc lex 2,,,"[{'time': 2753.699999999255, 'location': 0.728}]",POSITIVE,,,0.0-35.0-0.12,,,0.728,,3424,Girls should be protected and watched over more than boys.<br><br>,175315,47,html-vas-response,,
84,masc lex 2,,,,,,,0.0-36.0,,,0,,2504,"<p><font size='3'>You have completed the questionnaire. There will now be an optional survey. Please answer the following questions if you feel comfortable doing so. <br><br>When you're ready to procede, click ‘Continue’.</font></p>",177820,48,html-button-response,,
84,masc lex 2,,,,,,,0.0-37.0,,[0],{'Q0': 4},,6037,,183859,49,survey-likert,,
84,masc lex 2,[],,,,,,0.0-38.0,,,"{'age': '23', 'P0_Q0': None, 'enjoy': 'An average experiment', 'gender': 'Male', 'correct': 'Yes', 'payment': 'The payment was fair', 'comments': '', 'language': 'English', 'education': 'Graduated college'}",,22957,,206852,50,survey,,
84,masc lex 2,,,,,,,0.0-39.0,,,0,,1264,Thank you for your time! Please click 'Finish' and then wait a moment until you're directed back to Prolific.<br><br>,208117,51,html-button-response,,
93,masc lex 2,,,,,,,0.0-0.0,,,0,,5015,"<p><font size=""3"">DESCRIPTION: You are invited to participate in a research study. Its general purpose is to understand how people perceive written stimuli. You will be asked to read a series of sentences and provide judgments about the social characteristics of the speakers of these sentences. <br><br>RISKS AND BENEFITS: There are no known risks, costs, or discomforts in this study and this judgment is based on a large body of experiments with the same or similar procedures with people of similar ages, sex, origins, etc.  We cannot and do not guarantee or promise that you will receive any benefits from this study. You will help us to understand how people perceive written stimuli.<br><br>PAYMENTS: You will be paid at the posted rate. <br><br>SUBJECT RIGHTS: If you have read this form and have decided to participate in this project, please understand your participation is voluntary and you have the right to withdraw your consent or discontinue participation at any time without penalty or loss of benefits to which you are otherwise entitled. You have the right to refuse to answer particular questions. Your individual privacy will be maintained in all published and written data resulting from the study. <br><br> CONTACT INFORMATION: If you have any questions, concerns or complaints about this research study, its procedures, risks and benefits, you should contact the Protocol Director Meghan Sumner at (650)-725-9336. If you are not satisfied with how this study is being conducted, or if you have any concerns, complaints, or general questions about the research or your rights as a participant, please contact the Stanford Institutional Review Board (IRB) to speak to someone independent of the research team at (650)-723-2480 or toll free at 1-866-680-2906. You can also write to the Stanford IRB, Stanford University, 3000 El Camino Real, Five Palo Alto Square, 4th Floor, Palo Alto, CA 94306 USA.<br><br>WAIVER OF DOCUMENTATION: If you agree to participate in this research, please continue on to the next page.</font></p>",5022,0,html-button-response,,
93,masc lex 2,,,,,,,0.0-1.0,,,0,,14982,"<p><font size='3'>In this experiment, you will read a series of sentences. Each sentence has been produced by a different speaker. After reading each sentence, you will be asked to rate the social characteristics of its speaker. To rate the social characteristics of a speaker, click along the scale. After providing your rating, you can proceed to the next trial by clicking 'Continue'. Some trials will have comprehension questions. To complete these, click on the button with the correct answer. <br><br>When you're ready to begin, click ‘Start’.</font></p>",20005,1,html-button-response,,
93,masc lex 2,,,"[{'time': 6230, 'location': 0.578}]",,,masc,0.0-2.0,,,0.578,,7342,"['<p style=""font-weight:bold;"">My bad, I didn\'t see you there.</p><br><br>How masculine is the speaker of this sentence?<br><br>']",27349,2,html-vas-response,21,
93,masc lex 2,,,"[{'time': 3632, 'location': 0.5}]",,,masc,0.0-3.0,,,0.5,,5213,"['<p style=""font-weight:bold;"">That\'s a goofy thing to say.</p><br><br>How masculine is the speaker of this sentence?<br><br>']",32563,3,html-vas-response,20,
93,masc lex 2,,,"[{'time': 6832, 'location': 0.182}]",,,non_masc,0.0-4.0,,,0.182,,7814,"['<p style=""font-weight:bold;"">I see you got new lilac mugs.</p><br><br>How masculine is the speaker of this sentence?<br><br>']",40378,4,html-vas-response,4,
93,masc lex 2,correct,0,,,0,,0.0-5.0,,,,button,3891,What type of dish is the speaker commenting on?<br><br>,44271,5,html-multi-response,,
93,masc lex 2,,,"[{'time': 6951, 'location': 0.508}]",,,neutral,0.0-6.0,,,0.508,,7744,"['<p style=""font-weight:bold;"">My office is fairly boring.</p><br><br>How masculine is the speaker of this sentence?<br><br>']",52016,6,html-vas-response,16,
93,masc lex 2,,,"[{'time': 2111, 'location': 0.77}]",,,masc,0.0-7.0,,,0.77,,3683,"['<p style=""font-weight:bold;"">I hear what you\'re saying, bro.</p><br><br>How masculine is the speaker of this sentence?<br><br>']",55699,7,html-vas-response,23,
93,masc lex 2,,,"[{'time': 3051, 'location': 0.5}]",,,non_masc,0.0-8.0,,,0.5,,3754,"['<p style=""font-weight:bold;"">Chase was so tired on Monday.</p><br><br>How masculine is the speaker of this sentence?<br><br>']",59453,8,html-vas-response,6,
93,masc lex 2,correct,2,,,2,,0.0-9.0,,,,button,1442,Who was tired?<br><br>,60896,9,html-multi-response,,
93,masc lex 2,,,"[{'time': 7011, 'location': 0.486}]",,,neutral,0.0-10.0,,,0.486,,7842,"['<p style=""font-weight:bold;"">I can\'t stop laughing -- that was really funny.</p><br><br>How masculine is the speaker of this sentence?<br><br>']",68740,10,html-vas-response,10,
93,masc lex 2,,,"[{'time': 2471, 'location': 0.002}]",,,non_masc,0.0-11.0,,,0.002,,4684,"['<p style=""font-weight:bold;"">Girl, you won\'t believe who I bumped into this week.</p><br><br>How masculine is the speaker of this sentence?<br><br>']",73425,11,html-vas-response,2,
93,masc lex 2,correct,1,,,1,,0.0-12.0,,,,button,4740,True or False: The speaker expressed that they bumped into someone two weeks ago.<br><br>,78167,12,html-multi-response,,
93,masc lex 2,,,"[{'time': 6081, 'location': 0.324}]",,,masc,0.0-13.0,,,0.324,,7062,"['<p style=""font-weight:bold;"">I feel sorry for the dumb thing.</p><br><br>How masculine is the speaker of this sentence?<br><br>']",85231,13,html-vas-response,22,
93,masc lex 2,,,"[{'time': 3121, 'location': 0.502}]",,,masc,0.0-14.0,,,0.502,,3893,"['<p style=""font-weight:bold;"">Your presentation sounded good.</p><br><br>How masculine is the speaker of this sentence?<br><br>']",89126,14,html-vas-response,18,
93,masc lex 2,,,"[{'time': 4902, 'location': 0.514}]",,,neutral,0.0-15.0,,,0.514,,6304,"['<p style=""font-weight:bold;"">Some people think that show was very entertaining.</p><br><br>How masculine is the speaker of this sentence?<br><br>']",95430,15,html-vas-response,15,
93,masc lex 2,,,"[{'time': 3801, 'location': 0.502}]",,,non_masc,0.0-16.0,,,0.502,,4643,"['<p style=""font-weight:bold;"">Without a map, we are totally lost.</p><br><br>How masculine is the speaker of this sentence?<br><br>']",100074,16,html-vas-response,5,
93,masc lex 2,incorrect,0,,,1,,0.0-17.0,,,,button,3532,True or False: The speaker believes they will be lost without a GPS.<br><br>,103606,17,html-multi-response,,
93,masc lex 2,,,"[{'time': 7123, 'location': 0.474}, {'time': 7816, 'location': 0.496}]",,,neutral,0.0-18.0,,,0.496,,8768,"['<p style=""font-weight:bold;"">I\'m surprised how tasty that burger was.</p><br><br>How masculine is the speaker of this sentence?<br><br>']",112376,18,html-vas-response,14,
93,masc lex 2,,,"[{'time': 2451, 'location': 0.486}]",,,neutral,0.0-19.0,,,0.486,,3213,"['<p style=""font-weight:bold;"">I hear what you\'re saying, Sam.</p><br><br>How masculine is the speaker of this sentence?<br><br>']",115590,19,html-vas-response,9,
93,masc lex 2,,,"[{'time': 4501, 'location': 0.172}]",,,non_masc,0.0-20.0,,,0.172,,5483,"['<p style=""font-weight:bold;"">At the beach, I took the loveliest picture of the sunset.</p><br><br>How masculine is the speaker of this sentence?<br><br>']",121074,20,html-vas-response,7,
93,masc lex 2,correct,0,,,0,,0.0-21.0,,,,button,2131,What did the speaker photograph?<br><br>,123206,21,html-multi-response,,
93,masc lex 2,,,[],,,neutral,0.0-22.0,,,,,,"['<p style=""font-weight:bold;"">I bought a new shirt last Friday.</p><br><br>How masculine is the speaker of this sentence?<br><br>']",133222,22,html-vas-response,13,
93,masc lex 2,,,"[{'time': 5007, 'location': 0.502}]",,,masc,0.0-23.0,,,0.502,,6129,"['<p style=""font-weight:bold;"">I\'m surprised how delicious that taco was.</p><br><br>How masculine is the speaker of this sentence?<br><br>']",139353,23,html-vas-response,17,
93,masc lex 2,,,"[{'time': 3911, 'location': 0.49}]",,,masc,0.0-24.0,,,0.49,,4682,"['<p style=""font-weight:bold;"">I think that article was, um, well-researched.</p><br><br>How masculine is the speaker of this sentence?<br><br>']",144037,24,html-vas-response,24,
93,masc lex 2,,,"[{'time': 1921, 'location': 0.504}]",,,neutral,0.0-25.0,,,0.504,,2783,"['<p style=""font-weight:bold;"">My workout yesterday had me feeling exhausted.</p><br><br>How masculine is the speaker of this sentence?<br><br>']",146821,25,html-vas-response,11,
93,masc lex 2,,,"[{'time': 2162, 'location': 0.622}]",,,masc,0.0-26.0,,,0.622,,3093,"['<p style=""font-weight:bold;"">The party last night was really sick.</p><br><br>How masculine is the speaker of this sentence?<br><br>']",149915,26,html-vas-response,19,
93,masc lex 2,,,"[{'time': 3572, 'location': 0.506}]",,,non_masc,0.0-27.0,,,0.506,,4223,"['<p style=""font-weight:bold;"">When is lunch? I\'m literally starving.</p><br><br>How masculine is the speaker of this sentence?<br><br>']",154140,27,html-vas-response,3,
93,masc lex 2,correct,1,,,1,,0.0-28.0,,,,button,2412,What meal is the speaker asking about?<br><br>,156552,28,html-multi-response,,
93,masc lex 2,,,"[{'time': 6181, 'location': 0.266}]",,,non_masc,0.0-29.0,,,0.266,,7123,"['<p style=""font-weight:bold;"">I bought a periwinkle shirt last Friday.</p><br><br>How masculine is the speaker of this sentence?<br><br>']",163676,29,html-vas-response,8,
93,masc lex 2,correct,1,,,1,,0.0-30.0,,,,button,2091,What color shirt did the speaker purchase?<br><br>,165769,30,html-multi-response,,
93,masc lex 2,,,"[{'time': 6370, 'location': 0.504033203125}]",,,neutral,0.0-31.0,,,0.504033203,,7233,"['<p style=""font-weight:bold;"">My sister really wanted to let you know that she will be late. </p><br><br>How masculine is the speaker of this sentence?<br><br>']",173003,31,html-vas-response,12,
93,masc lex 2,,,"[{'time': 2131, 'location': 0.502}]",,,non_masc,0.0-32.0,,,0.502,,2813,"['<p style=""font-weight:bold;"">Can I take a peek at your answer? </p><br><br>How masculine is the speaker of this sentence?<br><br>']",175817,32,html-vas-response,1,
93,masc lex 2,correct,1,,,1,,0.0-33.0,,,,button,2391,What did the speaker ask to see?<br><br>,178210,33,html-multi-response,,
93,masc lex 2,,,,,,,0.0-34.0,,,0,,9612,"<p><font size='3'>You have completed the experimental trials. You will now complete a short questionnaire. During the questionnaire, you will see a series of statements alongside a scale. Click along the scale to indicate how much you agree or disagree with the statement. Upon completion of the questionnaire, you will be asked to fill out an optional demographic survey. <br><br>When you're ready to begin the questionnaire, click ‘Continue’.</font></p>",187822,34,html-button-response,,
93,masc lex 2,,,"[{'time': 5701, 'location': 0.482}]",POSITIVE,,,0.0-35.0-0.0,,,0.482,,6843,Mothers should work only if necessary.<br><br>,194667,35,html-vas-response,,
93,masc lex 2,,,"[{'time': 3510, 'location': 0.986}]",NEGATIVE,,,0.0-35.0-0.1,,,0.986,,4782,People should be treated the same regardless of their sex.<br><br>,199451,36,html-vas-response,,
93,masc lex 2,,,"[{'time': 7422, 'location': 0.822}]",NEGATIVE,,,0.0-35.0-0.2,,,0.822,,8444,The freedom that children are given should be determined by their age and maturity level and not by their sex.<br><br>,207896,37,html-vas-response,,
93,masc lex 2,,,"[{'time': 2721, 'location': 0.064}]",POSITIVE,,,0.0-35.0-0.3,,,0.064,,3443,Some types of work are just not appropriate for women.<br><br>,211339,38,html-vas-response,,
93,masc lex 2,,,"[{'time': 4812, 'location': 0.942}]",NEGATIVE,,,0.0-35.0-0.4,,,0.942,,5594,Tasks around the house should not be assigned by sex.<br><br>,216934,39,html-vas-response,,
93,masc lex 2,,,"[{'time': 3771, 'location': 0.162}]",POSITIVE,,,0.0-35.0-0.5,,,0.162,,4383,Men are more sexual than women.<br><br>,221318,40,html-vas-response,,
93,masc lex 2,,,"[{'time': 4811, 'location': 0.012}]",POSITIVE,,,0.0-35.0-0.6,,,0.012,,5583,"For many important jobs, it is better to choose men instead of women.<br><br>",226903,41,html-vas-response,,
93,masc lex 2,,,"[{'time': 4601, 'location': 0.992033203125}]",NEGATIVE,,,0.0-35.0-0.7,,,0.992033203,,5363,We should stop thinking about whether people are male or female and focus on other characteristics.<br><br>,232267,42,html-vas-response,,
93,masc lex 2,,,"[{'time': 4151, 'location': 0.078}]",POSITIVE,,,0.0-35.0-0.8,,,0.078,,4773,Mothers should make most decisions about how children are brought up.<br><br>,237041,43,html-vas-response,,
93,masc lex 2,,,"[{'time': 3632, 'location': 0.014033203125}]",POSITIVE,,,0.0-35.0-0.9,,,0.014033203,,4343,Only some types of work are appropriate for both men and women.<br><br>,241386,44,html-vas-response,,
93,masc lex 2,,,"[{'time': 4132, 'location': 0.244033203125}]",POSITIVE,,,0.0-35.0-0.10,,,0.244033203,,4744,Girls should be protected and watched over more than boys.<br><br>,246130,45,html-vas-response,,
93,masc lex 2,,,"[{'time': 3321, 'location': 0.850033203125}]",NEGATIVE,,,0.0-35.0-0.11,,,0.850033203,,4093,People can be both aggressive and nurturing regardless of sex.<br><br>,250224,46,html-vas-response,,
93,masc lex 2,,,"[{'time': 2651, 'location': 0.718}]",POSITIVE,,,0.0-35.0-0.12,,,0.718,,3344,A father’s major responsibility is to provide financially for his children.<br><br>,253569,47,html-vas-response,,
93,masc lex 2,,,,,,,0.0-36.0,,,0,,5462,"<p><font size='3'>You have completed the questionnaire. There will now be an optional survey. Please answer the following questions if you feel comfortable doing so. <br><br>When you're ready to procede, click ‘Continue’.</font></p>",259031,48,html-button-response,,
93,masc lex 2,,,,,,,0.0-37.0,,[0],{'Q0': 2},,3777,,262810,49,survey-likert,,
93,masc lex 2,[],,,,,,0.0-38.0,,,"{'age': '38', 'P0_Q0': None, 'enjoy': 'Better than the average experiment', 'gender': 'Male', 'correct': 'Yes', 'payment': 'The payment was fair', 'comments': '', 'language': 'English', 'education': 'Graduated high school'}",,21826,,284672,50,survey,,
93,masc lex 2,,,,,,,0.0-39.0,,,0,,1549,Thank you for your time! Please click 'Finish' and then wait a moment until you're directed back to Prolific.<br><br>,286223,51,html-button-response,,
39,masc lex 2,,,,,,,0.0-0.0,,,0,,1204,"<p><font size=""3"">DESCRIPTION: You are invited to participate in a research study. Its general purpose is to understand how people perceive written stimuli. You will be asked to read a series of sentences and provide judgments about the social characteristics of the speakers of these sentences. <br><br>RISKS AND BENEFITS: There are no known risks, costs, or discomforts in this study and this judgment is based on a large body of experiments with the same or similar procedures with people of similar ages, sex, origins, etc.  We cannot and do not guarantee or promise that you will receive any benefits from this study. You will help us to understand how people perceive written stimuli.<br><br>PAYMENTS: You will be paid at the posted rate. <br><br>SUBJECT RIGHTS: If you have read this form and have decided to participate in this project, please understand your participation is voluntary and you have the right to withdraw your consent or discontinue participation at any time without penalty or loss of benefits to which you are otherwise entitled. You have the right to refuse to answer particular questions. Your individual privacy will be maintained in all published and written data resulting from the study. <br><br> CONTACT INFORMATION: If you have any questions, concerns or complaints about this research study, its procedures, risks and benefits, you should contact the Protocol Director Meghan Sumner at (650)-725-9336. If you are not satisfied with how this study is being conducted, or if you have any concerns, complaints, or general questions about the research or your rights as a participant, please contact the Stanford Institutional Review Board (IRB) to speak to someone independent of the research team at (650)-723-2480 or toll free at 1-866-680-2906. You can also write to the Stanford IRB, Stanford University, 3000 El Camino Real, Five Palo Alto Square, 4th Floor, Palo Alto, CA 94306 USA.<br><br>WAIVER OF DOCUMENTATION: If you agree to participate in this research, please continue on to the next page.</font></p>",1218,0,html-button-response,,
39,masc lex 2,,,,,,,0.0-1.0,,,0,,18701,"<p><font size='3'>In this experiment, you will read a series of sentences. Each sentence has been produced by a different speaker. After reading each sentence, you will be asked to rate the social characteristics of its speaker. To rate the social characteristics of a speaker, click along the scale. After providing your rating, you can proceed to the next trial by clicking 'Continue'. Some trials will have comprehension questions. To complete these, click on the button with the correct answer. <br><br>When you're ready to begin, click ‘Start’.</font></p>",19922,1,html-button-response,,
39,masc lex 2,,,"[{'time': 7728.199999999255, 'location': 0.418}]",,,masc,0.0-2.0,,,0.418,,8841,"['<p style=""font-weight:bold;"">I think that article was, um, well-researched.</p><br><br>How masculine is the speaker of this sentence?<br><br>']",28780,2,html-vas-response,24,
39,masc lex 2,,,"[{'time': 4180.5, 'location': 0.3}]",,,non_masc,0.0-3.0,,,0.3,,5014,"['<p style=""font-weight:bold;"">I bought a periwinkle shirt last Friday.</p><br><br>How masculine is the speaker of this sentence?<br><br>']",33806,3,html-vas-response,8,
39,masc lex 2,correct,1,,,1,,0.0-4.0,,,,button,1758,What color shirt did the speaker purchase?<br><br>,35570,4,html-multi-response,,
39,masc lex 2,,,"[{'time': 5824.10000000149, 'location': 0.626}]",,,neutral,0.0-5.0,,,0.626,,6718,"['<p style=""font-weight:bold;"">I can\'t stop laughing -- that was really funny.</p><br><br>How masculine is the speaker of this sentence?<br><br>']",42297,5,html-vas-response,10,
39,masc lex 2,,,"[{'time': 4905.699999999255, 'location': 0.296}]",,,non_masc,0.0-6.0,,,0.296,,5760,"['<p style=""font-weight:bold;"">When is lunch? I\'m literally starving.</p><br><br>How masculine is the speaker of this sentence?<br><br>']",48063,6,html-vas-response,3,
39,masc lex 2,correct,1,,,1,,0.0-7.0,,,,button,1687,What meal is the speaker asking about?<br><br>,49753,7,html-multi-response,,
39,masc lex 2,,,"[{'time': 5572, 'location': 0.496}, {'time': 7234.0999999996275, 'location': 0.464}]",,,neutral,0.0-8.0,,,0.464,,8021,"['<p style=""font-weight:bold;"">My sister really wanted to let you know that she will be late. </p><br><br>How masculine is the speaker of this sentence?<br><br>']",57781,8,html-vas-response,12,
39,masc lex 2,,,"[{'time': 5218.299999998882, 'location': 0.468}]",,,masc,0.0-9.0,,,0.468,,6320,"['<p style=""font-weight:bold;"">I\'m surprised how delicious that taco was.</p><br><br>How masculine is the speaker of this sentence?<br><br>']",64109,9,html-vas-response,17,
39,masc lex 2,,,"[{'time': 4377, 'location': 0.548}]",,,masc,0.0-10.0,,,0.548,,5185,"['<p style=""font-weight:bold;"">Your presentation sounded good.</p><br><br>How masculine is the speaker of this sentence?<br><br>']",69299,10,html-vas-response,18,
39,masc lex 2,,,"[{'time': 2660.9000000003725, 'location': 0.492}]",,,neutral,0.0-11.0,,,0.492,,4952,"['<p style=""font-weight:bold;"">I bought a new shirt last Friday.</p><br><br>How masculine is the speaker of this sentence?<br><br>']",74256,11,html-vas-response,13,
39,masc lex 2,,,"[{'time': 3231.5999999996275, 'location': 0.222}]",,,non_masc,0.0-12.0,,,0.222,,4081,"['<p style=""font-weight:bold;"">I see you got new lilac mugs.</p><br><br>How masculine is the speaker of this sentence?<br><br>']",78343,12,html-vas-response,4,
39,masc lex 2,correct,0,,,0,,0.0-13.0,,,,button,2176,What type of dish is the speaker commenting on?<br><br>,80522,13,html-multi-response,,
39,masc lex 2,,,"[{'time': 3648.900000000373, 'location': 0.9}]",,,masc,0.0-14.0,,,0.9,,5221,"['<p style=""font-weight:bold;"">I hear what you\'re saying, bro.</p><br><br>How masculine is the speaker of this sentence?<br><br>']",85748,14,html-vas-response,23,
39,masc lex 2,,,"[{'time': 2872.5, 'location': 0.502}]",,,masc,0.0-15.0,,,0.502,,3925,"['<p style=""font-weight:bold;"">That\'s a goofy thing to say.</p><br><br>How masculine is the speaker of this sentence?<br><br>']",89678,15,html-vas-response,20,
39,masc lex 2,,,"[{'time': 3223.5, 'location': 0.58}, {'time': 3882.5, 'location': 0.556}]",,,neutral,0.0-16.0,,,0.556,,4603,"['<p style=""font-weight:bold;"">My office is fairly boring.</p><br><br>How masculine is the speaker of this sentence?<br><br>']",94286,16,html-vas-response,16,
39,masc lex 2,,,"[{'time': 2225, 'location': 0.688}]",,,neutral,0.0-17.0,,,0.688,,3571,"['<p style=""font-weight:bold;"">I hear what you\'re saying, Sam.</p><br><br>How masculine is the speaker of this sentence?<br><br>']",97864,17,html-vas-response,9,
39,masc lex 2,,,"[{'time': 4145.699999999255, 'location': 0.202}]",,,non_masc,0.0-18.0,,,0.202,,5636,"['<p style=""font-weight:bold;"">Girl, you won\'t believe who I bumped into this week.</p><br><br>How masculine is the speaker of this sentence?<br><br>']",103505,18,html-vas-response,2,
39,masc lex 2,correct,1,,,1,,0.0-19.0,,,,button,4552,True or False: The speaker expressed that they bumped into someone two weeks ago.<br><br>,108060,19,html-multi-response,,
39,masc lex 2,,,"[{'time': 4708.0999999996275, 'location': 0.512}]",,,non_masc,0.0-20.0,,,0.512,,5744,"['<p style=""font-weight:bold;"">Without a map, we are totally lost.</p><br><br>How masculine is the speaker of this sentence?<br><br>']",113809,20,html-vas-response,5,
39,masc lex 2,correct,1,,,1,,0.0-21.0,,,,button,5181,True or False: The speaker believes they will be lost without a GPS.<br><br>,118991,21,html-multi-response,,
39,masc lex 2,,,"[{'time': 3661.099999999627, 'location': 0.74}, {'time': 4151.9000000003725, 'location': 0.838}]",,,masc,0.0-22.0,,,0.838,,5049,"['<p style=""font-weight:bold;"">The party last night was really sick.</p><br><br>How masculine is the speaker of this sentence?<br><br>']",124045,22,html-vas-response,19,
39,masc lex 2,,,"[{'time': 4856, 'location': 0.188}]",,,non_masc,0.0-23.0,,,0.188,,5677,"['<p style=""font-weight:bold;"">At the beach, I took the loveliest picture of the sunset.</p><br><br>How masculine is the speaker of this sentence?<br><br>']",129727,23,html-vas-response,7,
39,masc lex 2,incorrect,1,,,0,,0.0-24.0,,,,button,1963,What did the speaker photograph?<br><br>,131693,24,html-multi-response,,
39,masc lex 2,,,"[{'time': 3819.2999999988824, 'location': 0.768}]",,,masc,0.0-25.0,,,0.768,,4605,"['<p style=""font-weight:bold;"">My bad, I didn\'t see you there.</p><br><br>How masculine is the speaker of this sentence?<br><br>']",136303,25,html-vas-response,21,
39,masc lex 2,,,"[{'time': 3119.5999999996275, 'location': 0.498}]",,,neutral,0.0-26.0,,,0.498,,4048,"['<p style=""font-weight:bold;"">Some people think that show was very entertaining.</p><br><br>How masculine is the speaker of this sentence?<br><br>']",140359,26,html-vas-response,15,
39,masc lex 2,,,"[{'time': 4616.200000001118, 'location': 0.456}]",,,masc,0.0-27.0,,,0.456,,5959,"['<p style=""font-weight:bold;"">I feel sorry for the dumb thing.</p><br><br>How masculine is the speaker of this sentence?<br><br>']",146324,27,html-vas-response,22,
39,masc lex 2,,,"[{'time': 3176.199999999255, 'location': 0.364}]",,,neutral,0.0-28.0,,,0.364,,4013,"['<p style=""font-weight:bold;"">I\'m surprised how tasty that burger was.</p><br><br>How masculine is the speaker of this sentence?<br><br>']",150342,28,html-vas-response,14,
39,masc lex 2,,,"[{'time': 3001.9000000003725, 'location': 0.41}]",,,neutral,0.0-29.0,,,0.41,,4696,"['<p style=""font-weight:bold;"">My workout yesterday had me feeling exhausted.</p><br><br>How masculine is the speaker of this sentence?<br><br>']",155043,29,html-vas-response,11,
39,masc lex 2,,,"[{'time': 2219, 'location': 0.512}]",,,non_masc,0.0-30.0,,,0.512,,2947,"['<p style=""font-weight:bold;"">Chase was so tired on Monday.</p><br><br>How masculine is the speaker of this sentence?<br><br>']",157994,30,html-vas-response,6,
39,masc lex 2,correct,2,,,2,,0.0-31.0,,,,button,1161,Who was tired?<br><br>,159158,31,html-multi-response,,
39,masc lex 2,,,"[{'time': 3169.7999999988824, 'location': 0.652}]",,,non_masc,0.0-32.0,,,0.652,,4835,"['<p style=""font-weight:bold;"">Can I take a peek at your answer? </p><br><br>How masculine is the speaker of this sentence?<br><br>']",163998,32,html-vas-response,1,
39,masc lex 2,correct,1,,,1,,0.0-33.0,,,,button,1636,What did the speaker ask to see?<br><br>,165637,33,html-multi-response,,
39,masc lex 2,,,,,,,0.0-34.0,,,0,,9538,"<p><font size='3'>You have completed the experimental trials. You will now complete a short questionnaire. During the questionnaire, you will see a series of statements alongside a scale. Click along the scale to indicate how much you agree or disagree with the statement. Upon completion of the questionnaire, you will be asked to fill out an optional demographic survey. <br><br>When you're ready to begin the questionnaire, click ‘Continue’.</font></p>",175180,34,html-button-response,,
39,masc lex 2,,,"[{'time': 9177.199999999257, 'location': 0.0480250244140625}]",POSITIVE,,,0.0-35.0-0.0,,,0.048025024,,,Only some types of work are appropriate for both men and women.<br><br>,185197,35,html-vas-response,,
39,masc lex 2,,,"[{'time': 6180.700000001118, 'location': 0.98}]",NEGATIVE,,,0.0-35.0-0.1,,,0.98,,,People can be both aggressive and nurturing regardless of sex.<br><br>,195207,36,html-vas-response,,
39,masc lex 2,,,"[{'time': 8375.699999999255, 'location': 0.328}]",POSITIVE,,,0.0-35.0-0.2,,,0.328,,,Mothers should make most decisions about how children are brought up.<br><br>,205220,37,html-vas-response,,
39,masc lex 2,,,"[{'time': 4385.799999998882, 'location': 0.544}]",POSITIVE,,,0.0-35.0-0.3,,,0.544,,,Men are more sexual than women.<br><br>,215241,38,html-vas-response,,
39,masc lex 2,,,"[{'time': 6534, 'location': 0.5360250244140625}]",POSITIVE,,,0.0-35.0-0.4,,,0.536025024,,,Girls should be protected and watched over more than boys.<br><br>,225257,39,html-vas-response,,
39,masc lex 2,,,"[{'time': 6048.5999999996275, 'location': 0.988}]",NEGATIVE,,,0.0-35.0-0.5,,,0.988,,,We should stop thinking about whether people are male or female and focus on other characteristics.<br><br>,235271,40,html-vas-response,,
39,masc lex 2,,,"[{'time': 4279.799999998882, 'location': 0.996}]",NEGATIVE,,,0.0-35.0-0.6,,,0.996,,,Tasks around the house should not be assigned by sex.<br><br>,245287,41,html-vas-response,,
39,masc lex 2,,,"[{'time': 5054.0999999996275, 'location': 0.0200250244140625}]",POSITIVE,,,0.0-35.0-0.7,,,0.020025024,,,"For many important jobs, it is better to choose men instead of women.<br><br>",255300,42,html-vas-response,,
39,masc lex 2,,,"[{'time': 8078.4000000003725, 'location': 0.6760250244140625}]",POSITIVE,,,0.0-35.0-0.8,,,0.676025024,,,A father’s major responsibility is to provide financially for his children.<br><br>,265312,43,html-vas-response,,
39,masc lex 2,,,"[{'time': 4046.099999999627, 'location': 0.116}]",POSITIVE,,,0.0-35.0-0.9,,,0.116,,,Mothers should work only if necessary.<br><br>,275324,44,html-vas-response,,
39,masc lex 2,,,"[{'time': 6519.799999998882, 'location': 0.094}]",POSITIVE,,,0.0-35.0-0.10,,,0.094,,,Some types of work are just not appropriate for women.<br><br>,285338,45,html-vas-response,,
39,masc lex 2,,,"[{'time': 5551.799999998882, 'location': 0.994}]",NEGATIVE,,,0.0-35.0-0.11,,,0.994,,,The freedom that children are given should be determined by their age and maturity level and not by their sex.<br><br>,295349,46,html-vas-response,,
39,masc lex 2,,,"[{'time': 4599.199999999255, 'location': 0.99}]",NEGATIVE,,,0.0-35.0-0.12,,,0.99,,,People should be treated the same regardless of their sex.<br><br>,305356,47,html-vas-response,,
39,masc lex 2,,,,,,,0.0-36.0,,,0,,3305,"<p><font size='3'>You have completed the questionnaire. There will now be an optional survey. Please answer the following questions if you feel comfortable doing so. <br><br>When you're ready to procede, click ‘Continue’.</font></p>",308664,48,html-button-response,,
39,masc lex 2,,,,,,,0.0-37.0,,[0],{'Q0': 0},,6202,,314870,49,survey-likert,,
39,masc lex 2,[],,,,,,0.0-38.0,,,"{'age': '40', 'P0_Q0': None, 'enjoy': 'An average experiment', 'gender': 'Female', 'correct': 'Yes', 'payment': 'The payment was fair', 'comments': 'Thank you for letting me participate! ', 'language': 'English', 'education': 'Some college'}",,31800,,346808,50,survey,,
39,masc lex 2,,,,,,,0.0-39.0,,,0,,3074,Thank you for your time! Please click 'Finish' and then wait a moment until you're directed back to Prolific.<br><br>,349885,51,html-button-response,,
156,masc lex 2,,,,,,,0.0-0.0,,,0,,112885,"<p><font size=""3"">DESCRIPTION: You are invited to participate in a research study. Its general purpose is to understand how people perceive written stimuli. You will be asked to read a series of sentences and provide judgments about the social characteristics of the speakers of these sentences. <br><br>RISKS AND BENEFITS: There are no known risks, costs, or discomforts in this study and this judgment is based on a large body of experiments with the same or similar procedures with people of similar ages, sex, origins, etc.  We cannot and do not guarantee or promise that you will receive any benefits from this study. You will help us to understand how people perceive written stimuli.<br><br>PAYMENTS: You will be paid at the posted rate. <br><br>SUBJECT RIGHTS: If you have read this form and have decided to participate in this project, please understand your participation is voluntary and you have the right to withdraw your consent or discontinue participation at any time without penalty or loss of benefits to which you are otherwise entitled. You have the right to refuse to answer particular questions. Your individual privacy will be maintained in all published and written data resulting from the study. <br><br> CONTACT INFORMATION: If you have any questions, concerns or complaints about this research study, its procedures, risks and benefits, you should contact the Protocol Director Meghan Sumner at (650)-725-9336. If you are not satisfied with how this study is being conducted, or if you have any concerns, complaints, or general questions about the research or your rights as a participant, please contact the Stanford Institutional Review Board (IRB) to speak to someone independent of the research team at (650)-723-2480 or toll free at 1-866-680-2906. You can also write to the Stanford IRB, Stanford University, 3000 El Camino Real, Five Palo Alto Square, 4th Floor, Palo Alto, CA 94306 USA.<br><br>WAIVER OF DOCUMENTATION: If you agree to participate in this research, please continue on to the next page.</font></p>",112890,0,html-button-response,,
156,masc lex 2,,,,,,,0.0-1.0,,,0,,37620,"<p><font size='3'>In this experiment, you will read a series of sentences. Each sentence has been produced by a different speaker. After reading each sentence, you will be asked to rate the social characteristics of its speaker. To rate the social characteristics of a speaker, click along the scale. After providing your rating, you can proceed to the next trial by clicking 'Continue'. Some trials will have comprehension questions. To complete these, click on the button with the correct answer. <br><br>When you're ready to begin, click ‘Start’.</font></p>",150510,1,html-button-response,,
156,masc lex 2,,,[],,,masc,0.0-2.0,,,,,,"['<p style=""font-weight:bold;"">My bad, I didn\'t see you there.</p><br><br>How masculine is the speaker of this sentence?<br><br>']",160524,2,html-vas-response,21,
156,masc lex 2,,,[],,,non_masc,0.0-3.0,,,,,,"['<p style=""font-weight:bold;"">When is lunch? I\'m literally starving.</p><br><br>How masculine is the speaker of this sentence?<br><br>']",170527,3,html-vas-response,3,
156,masc lex 2,incorrect,,,,1,,0.0-4.0,,,,,,What meal is the speaker asking about?<br><br>,180529,4,html-multi-response,,
156,masc lex 2,,,"[{'time': 8545.69999999553, 'location': 0.904}]",,,non_masc,0.0-5.0,,,0.904,,9603,"['<p style=""font-weight:bold;"">Without a map, we are totally lost.</p><br><br>How masculine is the speaker of this sentence?<br><br>']",190134,5,html-vas-response,5,
156,masc lex 2,correct,1,,,1,,0.0-6.0,,,,button,6752,True or False: The speaker believes they will be lost without a GPS.<br><br>,196887,6,html-multi-response,,
156,masc lex 2,,,"[{'time': 5007.60000000149, 'location': 0.478}]",,,neutral,0.0-7.0,,,0.478,,6583,"['<p style=""font-weight:bold;"">I bought a new shirt last Friday.</p><br><br>How masculine is the speaker of this sentence?<br><br>']",203471,7,html-vas-response,13,
156,masc lex 2,,,"[{'time': 6352.79999999702, 'location': 0.382}]",,,non_masc,0.0-8.0,,,0.382,,7552,"['<p style=""font-weight:bold;"">I see you got new lilac mugs.</p><br><br>How masculine is the speaker of this sentence?<br><br>']",211025,8,html-vas-response,4,
156,masc lex 2,correct,0,,,0,,0.0-9.0,,,,button,4553,What type of dish is the speaker commenting on?<br><br>,215579,9,html-multi-response,,
156,masc lex 2,,,"[{'time': 8839.60000000149, 'location': 0.29003125}]",,,neutral,0.0-10.0,,,,,,"['<p style=""font-weight:bold;"">My sister really wanted to let you know that she will be late. </p><br><br>How masculine is the speaker of this sentence?<br><br>']",225585,10,html-vas-response,12,
156,masc lex 2,,,"[{'time': 4025.5, 'location': 0.748}]",,,masc,0.0-11.0,,,0.748,,5121,"['<p style=""font-weight:bold;"">That\'s a goofy thing to say.</p><br><br>How masculine is the speaker of this sentence?<br><br>']",230708,11,html-vas-response,20,
156,masc lex 2,,,"[{'time': 4176, 'location': 0.056}]",,,non_masc,0.0-12.0,,,0.056,,5449,"['<p style=""font-weight:bold;"">Girl, you won\'t believe who I bumped into this week.</p><br><br>How masculine is the speaker of this sentence?<br><br>']",236158,12,html-vas-response,2,
156,masc lex 2,correct,1,,,1,,0.0-13.0,,,,button,6047,True or False: The speaker expressed that they bumped into someone two weeks ago.<br><br>,242206,13,html-multi-response,,
156,masc lex 2,,,"[{'time': 6880.80000000447, 'location': 0.242}]",,,masc,0.0-14.0,,,0.242,,8097,"['<p style=""font-weight:bold;"">I feel sorry for the dumb thing.</p><br><br>How masculine is the speaker of this sentence?<br><br>']",250303,14,html-vas-response,22,
156,masc lex 2,,,"[{'time': 5143.89999999851, 'location': 0.41}]",,,non_masc,0.0-15.0,,,0.41,,6657,"['<p style=""font-weight:bold;"">I bought a periwinkle shirt last Friday.</p><br><br>How masculine is the speaker of this sentence?<br><br>']",256961,15,html-vas-response,8,
156,masc lex 2,correct,1,,,1,,0.0-16.0,,,,button,1903,What color shirt did the speaker purchase?<br><br>,258864,16,html-multi-response,,
156,masc lex 2,,,"[{'time': 6649.0999999940395, 'location': 0.576}]",,,neutral,0.0-17.0,,,0.576,,8081,"['<p style=""font-weight:bold;"">I\'m surprised how tasty that burger was.</p><br><br>How masculine is the speaker of this sentence?<br><br>']",266946,17,html-vas-response,14,
156,masc lex 2,,,"[{'time': 5087.9000000059605, 'location': 0.504}]",,,non_masc,0.0-18.0,,,0.504,,5984,"['<p style=""font-weight:bold;"">Chase was so tired on Monday.</p><br><br>How masculine is the speaker of this sentence?<br><br>']",272930,18,html-vas-response,6,
156,masc lex 2,correct,2,,,2,,0.0-19.0,,,,button,2000,Who was tired?<br><br>,274931,19,html-multi-response,,
156,masc lex 2,,,"[{'time': 5664.19999999553, 'location': 0.518}, {'time': 9144.29999999702, 'location': 0.394}]",,,masc,0.0-20.0,,,,,,"['<p style=""font-weight:bold;"">I\'m surprised how delicious that taco was.</p><br><br>How masculine is the speaker of this sentence?<br><br>']",284942,20,html-vas-response,17,
156,masc lex 2,,,"[{'time': 7086.4000000059605, 'location': 0.62}]",,,neutral,0.0-21.0,,,0.62,,8063,"['<p style=""font-weight:bold;"">Some people think that show was very entertaining.</p><br><br>How masculine is the speaker of this sentence?<br><br>']",293006,21,html-vas-response,15,
156,masc lex 2,,,"[{'time': 4967.29999999702, 'location': 0.76}]",,,masc,0.0-22.0,,,0.76,,5992,"['<p style=""font-weight:bold;"">I think that article was, um, well-researched.</p><br><br>How masculine is the speaker of this sentence?<br><br>']",298999,22,html-vas-response,24,
156,masc lex 2,,,"[{'time': 7127.89999999851, 'location': 0.518}]",,,neutral,0.0-23.0,,,0.518,,8144,"['<p style=""font-weight:bold;"">My workout yesterday had me feeling exhausted.</p><br><br>How masculine is the speaker of this sentence?<br><br>']",307144,23,html-vas-response,11,
156,masc lex 2,,,"[{'time': 4088.099999994039, 'location': 0.53}]",,,neutral,0.0-24.0,,,0.53,,5073,"['<p style=""font-weight:bold;"">My office is fairly boring.</p><br><br>How masculine is the speaker of this sentence?<br><br>']",312217,24,html-vas-response,16,
156,masc lex 2,,,"[{'time': 4615.79999999702, 'location': 0.182}]",,,non_masc,0.0-25.0,,,0.182,,6136,"['<p style=""font-weight:bold;"">At the beach, I took the loveliest picture of the sunset.</p><br><br>How masculine is the speaker of this sentence?<br><br>']",318354,25,html-vas-response,7,
156,masc lex 2,correct,0,,,0,,0.0-26.0,,,,button,4016,What did the speaker photograph?<br><br>,322371,26,html-multi-response,,
156,masc lex 2,,,"[{'time': 3056.0999999940395, 'location': 0.816}]",,,masc,0.0-27.0,,,0.816,,7137,"['<p style=""font-weight:bold;"">I hear what you\'re saying, bro.</p><br><br>How masculine is the speaker of this sentence?<br><br>']",329508,27,html-vas-response,23,
156,masc lex 2,,,"[{'time': 9792.20000000298, 'location': 0.51}]",,,non_masc,0.0-28.0,,,,,,"['<p style=""font-weight:bold;"">Can I take a peek at your answer? </p><br><br>How masculine is the speaker of this sentence?<br><br>']",339515,28,html-vas-response,1,
156,masc lex 2,correct,1,,,1,,0.0-29.0,,,,button,4299,What did the speaker ask to see?<br><br>,343814,29,html-multi-response,,
156,masc lex 2,,,"[{'time': 6320.19999999553, 'location': 0.516}]",,,neutral,0.0-30.0,,,0.516,,7184,"['<p style=""font-weight:bold;"">I can\'t stop laughing -- that was really funny.</p><br><br>How masculine is the speaker of this sentence?<br><br>']",350999,30,html-vas-response,10,
156,masc lex 2,,,"[{'time': 3631.89999999851, 'location': 0.766}]",,,masc,0.0-31.0,,,0.766,,4576,"['<p style=""font-weight:bold;"">The party last night was really sick.</p><br><br>How masculine is the speaker of this sentence?<br><br>']",355576,31,html-vas-response,19,
156,masc lex 2,,,"[{'time': 2295.89999999851, 'location': 0.514}]",,,masc,0.0-32.0,,,0.514,,3320,"['<p style=""font-weight:bold;"">Your presentation sounded good.</p><br><br>How masculine is the speaker of this sentence?<br><br>']",358896,32,html-vas-response,18,
156,masc lex 2,,,"[{'time': 4200.39999999851, 'location': 0.642}]",,,neutral,0.0-33.0,,,0.642,,5296,"['<p style=""font-weight:bold;"">I hear what you\'re saying, Sam.</p><br><br>How masculine is the speaker of this sentence?<br><br>']",364193,33,html-vas-response,9,
