workerid,proliferate.condition,accuracy,coding,failed_audio,failed_images,failed_video,internal_node_id,question_order,response,result,rt,slider_start,stimulus,success,time_elapsed,timeout,trial_index,trial_type,error
507,main,,,[],[],[],0.0-0.0,,,,,,,True,1210,False,0,preload,
507,main,,,,,,0.0-1.0,,0,,5448,,"<p><font size='3'>DESCRIPTION: You are invited to participate in a research study. Its general purpose is to understand how people perceive speech. We are interested in how people make use of varying properties of language to infer social information about a speaker. In this study, you will hear spoken sentences, and you will be asked to make simple decisions about the sentences you hear. Following this, you will be asked to complete a short questionnaire, where you will indicate on a sliding scale how much you agree or disagree with a series of statements. You will also be asked to complete an optional demographic survey. <br><br>TIME INVOLVEMENT: Your participation will take approximately 3 to 10 minutes. <br><br>RISKS AND BENEFITS: The foreseeable risks associated with this study are minimal. This judgment is based on a large body of experience with the same or similar procedures with people of similar ages, sex, origins, etc. Study data will be stored securely, in compliance with Stanford University standards, minimizing the risk of confidentiality breach. There are no known benefits to you for participating in this study, and we cannot and do not guarantee or promise that you will receive any benefits from this study. You will help us to understand how people perceive spoken language. <br><br>PAYMENT: You will be paid at the posted rate. <br><br>PARTICIPANT RIGHTS: If you have read this form and have decided to participate in this project, please understand your participation is voluntary and you have the right to withdraw your consent or discontinue participation at any time without penalty or loss of benefits to which you are otherwise entitled. The alternative is not to participate. You have the right to refuse to answer particular questions. The results of this research study may be presented at scientific or professional meetings or published in scientific journals. Your individual privacy will be maintained in all published and written data resulting from the study. In accordance with scientific norms, the data from this study may be used or shared with other researchers for future research (after removing personally identifying information) without additional consent from you. <br><br>CONTACT INFORMATION: If you have any questions, concerns or complaints about this research study, its procedures, risks and benefits, you should contact the Protocol Director Grace Brown at (616) 498-8188. If you are not satisfied with how this study is being conducted, or if you have any concerns, complaints, or general questions about the research or your rights as a participant, please contact the Stanford Institutional Review Board (IRB) to speak to someone independent of the research team at (650) 723-2480 or toll free at 1-866-680-2906. You can also write to the Stanford IRB, Stanford University, 3000 El Camino Real, Five Palo Alto Square, 4th Floor, Palo Alto, CA 94306 USA. <br><br>WAIVER OF DOCUMENTATION: If you agree to participate in this research, please click the 'Continue' button. </font></p>",,6660,,1,html-button-response,
507,main,,,,,,0.0-2.0,,0,,5579,,"<p><font size='3'>This study requires you to listen to audio clips. To ensure you can adequately hear the audio presented in this study, the next page will have an audio attention check. Please wear headphones, and be prepared to adjust the volume on your device if necessary. <br><br> When you are ready to begin the audio attention check, click 'Start'. </font></p>",,12242,,2,html-button-response,
507,main,,,,,,0.0-3.0,,2,incorrect,3221,,audio/gift.wav,,15522,,3,audio-button-response,
507,main,,,,,,0.0-4.0,,0,,1577,,<p>Correct! You are ready to begin the study.</p>,,17100,,4,html-button-response,
507,main,,,,,,0.0-5.0,,0,,16542,,"<p><font size='3'>In this study, you will listen to a series of sentences. Each sentence is produced by a different speaker. While listening to each sentence, you will be prompted to rate the social characteristics of its speaker. To rate the social characteristics of a speaker, click along the scale that appears on your screen. You can click along this scale after the speaker stops talking. Try to respond as quickly as you can. The study will advance automatically if you do not respond within ten seconds. <br><br>Make sure you are wearing headphones. When you're ready to hear the first speaker, click ‘Start’. </font></p>",,33644,,5,html-button-response,
507,main,,625,,,,0.0-6.0-0.0,,4177,,9093,5000,audio/625_B2_CN7.wav,,42739,,6,audio-slider-response,
507,main,,,,,,0.0-6.0-1.0,,,,,,,,43746,,7,html-keyboard-response,
507,main,,723,,,,0.0-6.0-0.1,,5812,,4720,5000,audio/723_B1_CN7.wav,,48467,,8,audio-slider-response,
507,main,,,,,,0.0-6.0-1.1,,,,,,,,49470,,9,html-keyboard-response,
507,main,,246,,,,0.0-6.0-0.2,,1836,,5285,5000,audio/246_B2_CN7.wav,,54757,,10,audio-slider-response,
507,main,,,,,,0.0-6.0-1.2,,,,,,,,55763,,11,html-keyboard-response,
507,main,,340,,,,0.0-6.0-0.3,,6777,,5333,5000,audio/340_B1_CN7.wav,,61096,,12,audio-slider-response,
507,main,,,,,,0.0-6.0-1.3,,,,,,,,62102,,13,html-keyboard-response,
507,main,,193,,,,0.0-6.0-0.4,,6807,,4469,5000,audio/193_B1_CN7.wav,,66574,,14,audio-slider-response,
507,main,,,,,,0.0-6.0-1.4,,,,,,,,67580,,15,html-keyboard-response,
507,main,,,,,,0.0-7.0,,0,,6224,,"<p><font size='3'>You have completed the listening trials. You will now complete a short questionnaire. During the questionnaire, you will see a series of statements alongside a scale. Click along the scale to indicate how much you agree or disagree with the statement. Upon completion of the questionnaire, you will be asked to fill out an optional demographic survey. <br><br>When you're ready to begin the questionnaire, click ‘Continue’.</font></p>",,73805,,16,html-button-response,
507,main,,POSITIVE,,,,0.0-8.0-0.0,,0,,5296,5000,"For many important jobs, it is better to choose men instead of women.<br><br>",,79103,,17,html-slider-response,
507,main,,NEGATIVE,,,,0.0-8.0-0.1,,10000,,8331,5000,The freedom that children are given should be determined by their age and maturity level and not by their sex.<br><br>,,87436,,18,html-slider-response,
507,main,,POSITIVE,,,,0.0-8.0-0.2,,0,,5227,5000,Only some types of work are appropriate for both men and women.<br><br>,,92664,,19,html-slider-response,
507,main,,NEGATIVE,,,,0.0-8.0-0.3,,10000,,3603,5000,People should be treated the same regardless of their sex.<br><br>,,96269,,20,html-slider-response,
507,main,,POSITIVE,,,,0.0-8.0-0.4,,0,,3848,5000,Mothers should work only if necessary.<br><br>,,100118,,21,html-slider-response,
507,main,,POSITIVE,,,,0.0-8.0-0.5,,5683,,8340,5000,Mothers should make most decisions about how children are brought up.<br><br>,,108459,,22,html-slider-response,
507,main,,POSITIVE,,,,0.0-8.0-0.6,,2307,,7172,5000,A father’s major responsibility is to provide financially for his children.<br><br>,,115633,,23,html-slider-response,
507,main,,POSITIVE,,,,0.0-8.0-0.7,,0,,2861,5000,Some types of work are just not appropriate for women.<br><br>,,118496,,24,html-slider-response,
507,main,,NEGATIVE,,,,0.0-8.0-0.8,,9202,,10973,5000,We should stop thinking about whether people are male or female and focus on other characteristics.<br><br>,,129470,,25,html-slider-response,
507,main,,NEGATIVE,,,,0.0-8.0-0.9,,10000,,5755,5000,People can be both aggressive and nurturing regardless of sex.<br><br>,,135227,,26,html-slider-response,
507,main,,NEGATIVE,,,,0.0-8.0-0.10,,10000,,6378,5000,Tasks around the house should not be assigned by sex.<br><br>,,141606,,27,html-slider-response,
507,main,,POSITIVE,,,,0.0-8.0-0.11,,0,,12268,5000,Men are more sexual than women.<br><br>,,153875,,28,html-slider-response,
507,main,,POSITIVE,,,,0.0-8.0-0.12,,1285,,6629,5000,Girls should be protected and watched over more than boys.<br><br>,,160506,,29,html-slider-response,
507,main,,,,,,0.0-9.0,,0,,5177,,"<p><font size='3'>You have completed the questionnaire. There will now be an optional survey. Please answer the following questions if you feel comfortable doing so. If you do not wish to answer a question, please leave it blank. <br><br>When you're ready to procede, click ‘Continue’.</font></p>",,165684,,30,html-button-response,
507,main,,,,,,0.0-10.0,[0],{'Q0': 0},,4553,,,,170239,,31,survey-likert,
507,main,[],,,,,0.0-11.0,,"{'age': '35', 'enjoy': 'Better than the average experiment', 'gender': 'Female', 'region': 'Southwest - AZ, NM, OK, TX', 'correct': 'Yes', 'payment': 'The payment was fair', 'comments': 'none, but thank you and good luck with your research', 'language': 'english', 'education': 'Graduated college', 'question1': None}",,45886,,,,216219,,32,survey,
507,main,,,,,,0.0-12.0,,0,,4766,,Thank you for your time! Please click 'Finish' and then wait a moment until you're directed back to Prolific.<br><br>,,220986,,33,html-button-response,
492,main,,,[],[],[],0.0-0.0,,,,,,,True,897,False,0,preload,
492,main,,,,,,0.0-1.0,,0,,15224,,"<p><font size='3'>DESCRIPTION: You are invited to participate in a research study. Its general purpose is to understand how people perceive speech. We are interested in how people make use of varying properties of language to infer social information about a speaker. In this study, you will hear spoken sentences, and you will be asked to make simple decisions about the sentences you hear. Following this, you will be asked to complete a short questionnaire, where you will indicate on a sliding scale how much you agree or disagree with a series of statements. You will also be asked to complete an optional demographic survey. <br><br>TIME INVOLVEMENT: Your participation will take approximately 3 to 10 minutes. <br><br>RISKS AND BENEFITS: The foreseeable risks associated with this study are minimal. This judgment is based on a large body of experience with the same or similar procedures with people of similar ages, sex, origins, etc. Study data will be stored securely, in compliance with Stanford University standards, minimizing the risk of confidentiality breach. There are no known benefits to you for participating in this study, and we cannot and do not guarantee or promise that you will receive any benefits from this study. You will help us to understand how people perceive spoken language. <br><br>PAYMENT: You will be paid at the posted rate. <br><br>PARTICIPANT RIGHTS: If you have read this form and have decided to participate in this project, please understand your participation is voluntary and you have the right to withdraw your consent or discontinue participation at any time without penalty or loss of benefits to which you are otherwise entitled. The alternative is not to participate. You have the right to refuse to answer particular questions. The results of this research study may be presented at scientific or professional meetings or published in scientific journals. Your individual privacy will be maintained in all published and written data resulting from the study. In accordance with scientific norms, the data from this study may be used or shared with other researchers for future research (after removing personally identifying information) without additional consent from you. <br><br>CONTACT INFORMATION: If you have any questions, concerns or complaints about this research study, its procedures, risks and benefits, you should contact the Protocol Director Grace Brown at (616) 498-8188. If you are not satisfied with how this study is being conducted, or if you have any concerns, complaints, or general questions about the research or your rights as a participant, please contact the Stanford Institutional Review Board (IRB) to speak to someone independent of the research team at (650) 723-2480 or toll free at 1-866-680-2906. You can also write to the Stanford IRB, Stanford University, 3000 El Camino Real, Five Palo Alto Square, 4th Floor, Palo Alto, CA 94306 USA. <br><br>WAIVER OF DOCUMENTATION: If you agree to participate in this research, please click the 'Continue' button. </font></p>",,16125,,1,html-button-response,
492,main,,,,,,0.0-2.0,,,,,,"<p><font size='3'>This study requires you to listen to audio clips. To ensure you can adequately hear the audio presented in this study, the next page will have an audio attention check. Please wear headphones, and be prepared to adjust the volume on your device if necessary. <br><br> When you are ready to begin the audio attention check, click 'Start'. </font></p>",,26132,,2,html-button-response,
492,main,,,,,,0.0-3.0,,2,incorrect,6656,,audio/gift.wav,,32842,,3,audio-button-response,
492,main,,,,,,0.0-4.0,,0,,1639,,<p>Correct! You are ready to begin the study.</p>,,34484,,4,html-button-response,
492,main,,,,,,0.0-5.0,,0,,79108,,"<p><font size='3'>In this study, you will listen to a series of sentences. Each sentence is produced by a different speaker. While listening to each sentence, you will be prompted to rate the social characteristics of its speaker. To rate the social characteristics of a speaker, click along the scale that appears on your screen. You can click along this scale after the speaker stops talking. Try to respond as quickly as you can. The study will advance automatically if you do not respond within ten seconds. <br><br>Make sure you are wearing headphones. When you're ready to hear the first speaker, click ‘Start’. </font></p>",,113594,,5,html-button-response,
492,main,,246,,,,0.0-6.0-0.0,,1346,,5536,5000,audio/246_B2_CN7.wav,,119182,,6,audio-slider-response,
492,main,,,,,,0.0-6.0-1.0,,,,,,,,120188,,7,html-keyboard-response,
492,main,,723,,,,0.0-6.0-0.1,,5278,,5685,5000,audio/723_B1_CN7.wav,,125874,,8,audio-slider-response,
492,main,,,,,,0.0-6.0-1.1,,,,,,,,126876,,9,html-keyboard-response,
492,main,,340,,,,0.0-6.0-0.2,,2973,,4469,5000,audio/340_B1_CN7.wav,,131344,,10,audio-slider-response,
492,main,,,,,,0.0-6.0-1.2,,,,,,,,132346,,11,html-keyboard-response,
492,main,,625,,,,0.0-6.0-0.3,,4735,,4949,5000,audio/625_B2_CN7.wav,,137299,,12,audio-slider-response,
492,main,,,,,,0.0-6.0-1.3,,,,,,,,138301,,13,html-keyboard-response,
492,main,,193,,,,0.0-6.0-0.4,,5366,,6133,5000,audio/193_B1_CN7.wav,,144435,,14,audio-slider-response,
492,main,,,,,,0.0-6.0-1.4,,,,,,,,145437,,15,html-keyboard-response,
492,main,,,,,,0.0-7.0,,0,,6092,,"<p><font size='3'>You have completed the listening trials. You will now complete a short questionnaire. During the questionnaire, you will see a series of statements alongside a scale. Click along the scale to indicate how much you agree or disagree with the statement. Upon completion of the questionnaire, you will be asked to fill out an optional demographic survey. <br><br>When you're ready to begin the questionnaire, click ‘Continue’.</font></p>",,151532,,16,html-button-response,
492,main,,POSITIVE,,,,0.0-8.0-0.0,,5230,,8118,5000,Mothers should make most decisions about how children are brought up.<br><br>,,159654,,17,html-slider-response,
492,main,,POSITIVE,,,,0.0-8.0-0.1,,4458,,6009,5000,Men are more sexual than women.<br><br>,,165667,,18,html-slider-response,
492,main,,NEGATIVE,,,,0.0-8.0-0.2,,8273,,6003,5000,People should be treated the same regardless of their sex.<br><br>,,171674,,19,html-slider-response,
492,main,,POSITIVE,,,,0.0-8.0-0.3,,3966,,5704,5000,Mothers should work only if necessary.<br><br>,,177381,,20,html-slider-response,
492,main,,NEGATIVE,,,,0.0-8.0-0.4,,7624,,11946,5000,The freedom that children are given should be determined by their age and maturity level and not by their sex.<br><br>,,189330,,21,html-slider-response,
492,main,,POSITIVE,,,,0.0-8.0-0.5,,6142,,4647,5000,Some types of work are just not appropriate for women.<br><br>,,193981,,22,html-slider-response,
492,main,,POSITIVE,,,,0.0-8.0-0.6,,6327,,7969,5000,A father’s major responsibility is to provide financially for his children.<br><br>,,201953,,23,html-slider-response,
492,main,,POSITIVE,,,,0.0-8.0-0.7,,5662,,7501,5000,Girls should be protected and watched over more than boys.<br><br>,,209458,,24,html-slider-response,
492,main,,NEGATIVE,,,,0.0-8.0-0.8,,4095,,5623,5000,We should stop thinking about whether people are male or female and focus on other characteristics.<br><br>,,215084,,25,html-slider-response,
492,main,,POSITIVE,,,,0.0-8.0-0.9,,3325,,8148,5000,Only some types of work are appropriate for both men and women.<br><br>,,223236,,26,html-slider-response,
492,main,,NEGATIVE,,,,0.0-8.0-0.10,,10000,,3765,5000,Tasks around the house should not be assigned by sex.<br><br>,,227005,,27,html-slider-response,
492,main,,POSITIVE,,,,0.0-8.0-0.11,,929,,8293,5000,"For many important jobs, it is better to choose men instead of women.<br><br>",,235302,,28,html-slider-response,
492,main,,NEGATIVE,,,,0.0-8.0-0.12,,6536,,9361,5000,People can be both aggressive and nurturing regardless of sex.<br><br>,,244666,,29,html-slider-response,
492,main,,,,,,0.0-9.0,,0,,5167,,"<p><font size='3'>You have completed the questionnaire. There will now be an optional survey. Please answer the following questions if you feel comfortable doing so. If you do not wish to answer a question, please leave it blank. <br><br>When you're ready to procede, click ‘Continue’.</font></p>",,249836,,30,html-button-response,
492,main,,,,,,0.0-10.0,[0],{'Q0': 2},,3081,,,,252926,,31,survey-likert,
492,main,[],,,,,0.0-11.0,,"{'age': '32', 'enjoy': 'An average experiment', 'gender': 'Female', 'region': 'Southeast - AL, AR, FL, GA, KY, LA, MS, NC, SC, TN, VA, WV', 'correct': 'Yes', 'payment': 'The payment was fair', 'comments': '', 'language': 'English', 'education': 'Hold a higher degree', 'question1': None}",,35463,,,,288701,,32,survey,
492,main,,,,,,0.0-12.0,,0,,1538,,Thank you for your time! Please click 'Finish' and then wait a moment until you're directed back to Prolific.<br><br>,,290244,,33,html-button-response,
526,main,,,[],[],[],0.0-0.0,,,,,,,True,2140,False,0,preload,
526,main,,,,,,0.0-1.0,,0,,35379,,"<p><font size='3'>DESCRIPTION: You are invited to participate in a research study. Its general purpose is to understand how people perceive speech. We are interested in how people make use of varying properties of language to infer social information about a speaker. In this study, you will hear spoken sentences, and you will be asked to make simple decisions about the sentences you hear. Following this, you will be asked to complete a short questionnaire, where you will indicate on a sliding scale how much you agree or disagree with a series of statements. You will also be asked to complete an optional demographic survey. <br><br>TIME INVOLVEMENT: Your participation will take approximately 3 to 10 minutes. <br><br>RISKS AND BENEFITS: The foreseeable risks associated with this study are minimal. This judgment is based on a large body of experience with the same or similar procedures with people of similar ages, sex, origins, etc. Study data will be stored securely, in compliance with Stanford University standards, minimizing the risk of confidentiality breach. There are no known benefits to you for participating in this study, and we cannot and do not guarantee or promise that you will receive any benefits from this study. You will help us to understand how people perceive spoken language. <br><br>PAYMENT: You will be paid at the posted rate. <br><br>PARTICIPANT RIGHTS: If you have read this form and have decided to participate in this project, please understand your participation is voluntary and you have the right to withdraw your consent or discontinue participation at any time without penalty or loss of benefits to which you are otherwise entitled. The alternative is not to participate. You have the right to refuse to answer particular questions. The results of this research study may be presented at scientific or professional meetings or published in scientific journals. Your individual privacy will be maintained in all published and written data resulting from the study. In accordance with scientific norms, the data from this study may be used or shared with other researchers for future research (after removing personally identifying information) without additional consent from you. <br><br>CONTACT INFORMATION: If you have any questions, concerns or complaints about this research study, its procedures, risks and benefits, you should contact the Protocol Director Grace Brown at (616) 498-8188. If you are not satisfied with how this study is being conducted, or if you have any concerns, complaints, or general questions about the research or your rights as a participant, please contact the Stanford Institutional Review Board (IRB) to speak to someone independent of the research team at (650) 723-2480 or toll free at 1-866-680-2906. You can also write to the Stanford IRB, Stanford University, 3000 El Camino Real, Five Palo Alto Square, 4th Floor, Palo Alto, CA 94306 USA. <br><br>WAIVER OF DOCUMENTATION: If you agree to participate in this research, please click the 'Continue' button. </font></p>",,37565,,1,html-button-response,
526,main,,,,,,0.0-2.0,,,,,,"<p><font size='3'>This study requires you to listen to audio clips. To ensure you can adequately hear the audio presented in this study, the next page will have an audio attention check. Please wear headphones, and be prepared to adjust the volume on your device if necessary. <br><br> When you are ready to begin the audio attention check, click 'Start'. </font></p>",,48036,,2,html-button-response,
526,main,,,,,,0.0-3.0,,2,incorrect,5163,,audio/gift.wav,,54361,,3,audio-button-response,
526,main,,,,,,0.0-4.0,,0,,20643,,<p>Correct! You are ready to begin the study.</p>,,75006,,4,html-button-response,
526,main,,,,,,0.0-5.0,,0,,5662,,"<p><font size='3'>In this study, you will listen to a series of sentences. Each sentence is produced by a different speaker. While listening to each sentence, you will be prompted to rate the social characteristics of its speaker. To rate the social characteristics of a speaker, click along the scale that appears on your screen. You can click along this scale after the speaker stops talking. Try to respond as quickly as you can. The study will advance automatically if you do not respond within ten seconds. <br><br>Make sure you are wearing headphones. When you're ready to hear the first speaker, click ‘Start’. </font></p>",,80671,,5,html-button-response,
526,main,,723,,,,0.0-6.0-0.0,,,,,5000,audio/723_B1_CN7.wav,,90838,,6,audio-slider-response,
526,main,,,,,,0.0-6.0-1.0,,,,,,,,91847,,7,html-keyboard-response,
526,main,,246,,,,0.0-6.0-0.1,,2350,,6749,5000,audio/246_B2_CN7.wav,,98594,,8,audio-slider-response,
526,main,,,,,,0.0-6.0-1.1,,,,,,,,99596,,9,html-keyboard-response,
526,main,,340,,,,0.0-6.0-0.2,,8209,,8221,5000,audio/340_B1_CN7.wav,,107815,,10,audio-slider-response,
526,main,,,,,,0.0-6.0-1.2,,,,,,,,108826,,11,html-keyboard-response,
526,main,,625,,,,0.0-6.0-0.3,,8706,,7389,5000,audio/625_B2_CN7.wav,,116216,,12,audio-slider-response,
526,main,,,,,,0.0-6.0-1.3,,,,,,,,117226,,13,html-keyboard-response,
526,main,,193,,,,0.0-6.0-0.4,,8085,,6429,5000,audio/193_B1_CN7.wav,,123650,,14,audio-slider-response,
526,main,,,,,,0.0-6.0-1.4,,,,,,,,124656,,15,html-keyboard-response,
526,main,,,,,,0.0-7.0,,0,,7104,,"<p><font size='3'>You have completed the listening trials. You will now complete a short questionnaire. During the questionnaire, you will see a series of statements alongside a scale. Click along the scale to indicate how much you agree or disagree with the statement. Upon completion of the questionnaire, you will be asked to fill out an optional demographic survey. <br><br>When you're ready to begin the questionnaire, click ‘Continue’.</font></p>",,131760,,16,html-button-response,
526,main,,POSITIVE,,,,0.0-8.0-0.0,,7195,,8415,5000,Girls should be protected and watched over more than boys.<br><br>,,140194,,17,html-slider-response,
526,main,,NEGATIVE,,,,0.0-8.0-0.1,,7630,,9111,5000,We should stop thinking about whether people are male or female and focus on other characteristics.<br><br>,,149306,,18,html-slider-response,
526,main,,NEGATIVE,,,,0.0-8.0-0.2,,1998,,11181,5000,Tasks around the house should not be assigned by sex.<br><br>,,160489,,19,html-slider-response,
526,main,,NEGATIVE,,,,0.0-8.0-0.3,,9472,,7977,5000,The freedom that children are given should be determined by their age and maturity level and not by their sex.<br><br>,,168469,,20,html-slider-response,
526,main,,NEGATIVE,,,,0.0-8.0-0.4,,8810,,7785,5000,People can be both aggressive and nurturing regardless of sex.<br><br>,,176256,,21,html-slider-response,
526,main,,POSITIVE,,,,0.0-8.0-0.5,,8271,,6921,5000,Men are more sexual than women.<br><br>,,183178,,22,html-slider-response,
526,main,,NEGATIVE,,,,0.0-8.0-0.6,,8251,,8645,5000,People should be treated the same regardless of their sex.<br><br>,,191824,,23,html-slider-response,
526,main,,POSITIVE,,,,0.0-8.0-0.7,,1853,,6905,5000,Mothers should make most decisions about how children are brought up.<br><br>,,198730,,24,html-slider-response,
526,main,,POSITIVE,,,,0.0-8.0-0.8,,8499,,6744,5000,Some types of work are just not appropriate for women.<br><br>,,205476,,25,html-slider-response,
526,main,,POSITIVE,,,,0.0-8.0-0.9,,10000,,5378,5000,A father’s major responsibility is to provide financially for his children.<br><br>,,210857,,26,html-slider-response,
526,main,,POSITIVE,,,,0.0-8.0-0.10,,963,,5210,5000,Mothers should work only if necessary.<br><br>,,216069,,27,html-slider-response,
526,main,,POSITIVE,,,,0.0-8.0-0.11,,549,,7280,5000,"For many important jobs, it is better to choose men instead of women.<br><br>",,223350,,28,html-slider-response,
526,main,,POSITIVE,,,,0.0-8.0-0.12,,9721,,8115,5000,Only some types of work are appropriate for both men and women.<br><br>,,231467,,29,html-slider-response,
526,main,,,,,,0.0-9.0,,0,,3893,,"<p><font size='3'>You have completed the questionnaire. There will now be an optional survey. Please answer the following questions if you feel comfortable doing so. If you do not wish to answer a question, please leave it blank. <br><br>When you're ready to procede, click ‘Continue’.</font></p>",,235361,,30,html-button-response,
526,main,,,,,,0.0-10.0,[0],{'Q0': 4},,7517,,,,242879,,31,survey-likert,
526,main,[],,,,,0.0-11.0,,"{'age': '21', 'enjoy': 'Better than the average experiment', 'gender': 'Female', 'region': 'Southeast - AL, AR, FL, GA, KY, LA, MS, NC, SC, TN, VA, WV', 'correct': 'Yes', 'payment': 'The payment was fair', 'comments': 'no', 'language': 'English', 'education': 'Hold a higher degree', 'question1': None}",,86204,,,,329344,,32,survey,
526,main,,,,,,0.0-12.0,,0,,106512,,Thank you for your time! Please click 'Finish' and then wait a moment until you're directed back to Prolific.<br><br>,,435858,,33,html-button-response,
551,main,,,[],[],[],0.0-0.0,,,,,,,True,2263,False,0,preload,
551,main,,,,,,0.0-1.0,,0,,5548,,"<p><font size='3'>DESCRIPTION: You are invited to participate in a research study. Its general purpose is to understand how people perceive speech. We are interested in how people make use of varying properties of language to infer social information about a speaker. In this study, you will hear spoken sentences, and you will be asked to make simple decisions about the sentences you hear. Following this, you will be asked to complete a short questionnaire, where you will indicate on a sliding scale how much you agree or disagree with a series of statements. You will also be asked to complete an optional demographic survey. <br><br>TIME INVOLVEMENT: Your participation will take approximately 3 to 10 minutes. <br><br>RISKS AND BENEFITS: The foreseeable risks associated with this study are minimal. This judgment is based on a large body of experience with the same or similar procedures with people of similar ages, sex, origins, etc. Study data will be stored securely, in compliance with Stanford University standards, minimizing the risk of confidentiality breach. There are no known benefits to you for participating in this study, and we cannot and do not guarantee or promise that you will receive any benefits from this study. You will help us to understand how people perceive spoken language. <br><br>PAYMENT: You will be paid at the posted rate. <br><br>PARTICIPANT RIGHTS: If you have read this form and have decided to participate in this project, please understand your participation is voluntary and you have the right to withdraw your consent or discontinue participation at any time without penalty or loss of benefits to which you are otherwise entitled. The alternative is not to participate. You have the right to refuse to answer particular questions. The results of this research study may be presented at scientific or professional meetings or published in scientific journals. Your individual privacy will be maintained in all published and written data resulting from the study. In accordance with scientific norms, the data from this study may be used or shared with other researchers for future research (after removing personally identifying information) without additional consent from you. <br><br>CONTACT INFORMATION: If you have any questions, concerns or complaints about this research study, its procedures, risks and benefits, you should contact the Protocol Director Grace Brown at (616) 498-8188. If you are not satisfied with how this study is being conducted, or if you have any concerns, complaints, or general questions about the research or your rights as a participant, please contact the Stanford Institutional Review Board (IRB) to speak to someone independent of the research team at (650) 723-2480 or toll free at 1-866-680-2906. You can also write to the Stanford IRB, Stanford University, 3000 El Camino Real, Five Palo Alto Square, 4th Floor, Palo Alto, CA 94306 USA. <br><br>WAIVER OF DOCUMENTATION: If you agree to participate in this research, please click the 'Continue' button. </font></p>",,7812,,1,html-button-response,
551,main,,,,,,0.0-2.0,,,,,,"<p><font size='3'>This study requires you to listen to audio clips. To ensure you can adequately hear the audio presented in this study, the next page will have an audio attention check. Please wear headphones, and be prepared to adjust the volume on your device if necessary. <br><br> When you are ready to begin the audio attention check, click 'Start'. </font></p>",,17818,,2,html-button-response,
551,main,,,,,,0.0-3.0,,2,incorrect,2661,,audio/gift.wav,,21145,,3,audio-button-response,
551,main,,,,,,0.0-4.0,,0,,1354,,<p>Correct! You are ready to begin the study.</p>,,22500,,4,html-button-response,
551,main,,,,,,0.0-5.0,,0,,5890,,"<p><font size='3'>In this study, you will listen to a series of sentences. Each sentence is produced by a different speaker. While listening to each sentence, you will be prompted to rate the social characteristics of its speaker. To rate the social characteristics of a speaker, click along the scale that appears on your screen. You can click along this scale after the speaker stops talking. Try to respond as quickly as you can. The study will advance automatically if you do not respond within ten seconds. <br><br>Make sure you are wearing headphones. When you're ready to hear the first speaker, click ‘Start’. </font></p>",,28391,,5,html-button-response,
551,main,,246,,,,0.0-6.0-0.0,,2174,,7000,5000,audio/246_B2_CN7.wav,,35391,,6,audio-slider-response,
551,main,,,,,,0.0-6.0-1.0,,,,,,,,36394,,7,html-keyboard-response,
551,main,,723,,,,0.0-6.0-0.1,,9052,,4181,5000,audio/723_B1_CN7.wav,,40571,,8,audio-slider-response,
551,main,,,,,,0.0-6.0-1.1,,,,,,,,41585,,9,html-keyboard-response,
551,main,,193,,,,0.0-6.0-0.2,,4394,,6640,5000,audio/193_B1_CN7.wav,,48227,,10,audio-slider-response,
551,main,,,,,,0.0-6.0-1.2,,,,,,,,49243,,11,html-keyboard-response,
551,main,,625,,,,0.0-6.0-0.3,,5441,,5691,5000,audio/625_B2_CN7.wav,,54932,,12,audio-slider-response,
551,main,,,,,,0.0-6.0-1.3,,,,,,,,55934,,13,html-keyboard-response,
551,main,,340,,,,0.0-6.0-0.4,,6502,,4989,5000,audio/340_B1_CN7.wav,,60922,,14,audio-slider-response,
551,main,,,,,,0.0-6.0-1.4,,,,,,,,61934,,15,html-keyboard-response,
551,main,,,,,,0.0-7.0,,0,,7308,,"<p><font size='3'>You have completed the listening trials. You will now complete a short questionnaire. During the questionnaire, you will see a series of statements alongside a scale. Click along the scale to indicate how much you agree or disagree with the statement. Upon completion of the questionnaire, you will be asked to fill out an optional demographic survey. <br><br>When you're ready to begin the questionnaire, click ‘Continue’.</font></p>",,69244,,16,html-button-response,
551,main,,NEGATIVE,,,,0.0-8.0-0.0,,8046,,6542,5000,People can be both aggressive and nurturing regardless of sex.<br><br>,,75788,,17,html-slider-response,
551,main,,POSITIVE,,,,0.0-8.0-0.1,,5193,,7399,5000,Men are more sexual than women.<br><br>,,83189,,18,html-slider-response,
551,main,,POSITIVE,,,,0.0-8.0-0.2,,6626,,4688,5000,Mothers should work only if necessary.<br><br>,,87879,,19,html-slider-response,
551,main,,POSITIVE,,,,0.0-8.0-0.3,,5524,,6982,5000,"For many important jobs, it is better to choose men instead of women.<br><br>",,94862,,20,html-slider-response,
551,main,,NEGATIVE,,,,0.0-8.0-0.4,,6943,,4410,5000,Tasks around the house should not be assigned by sex.<br><br>,,99274,,21,html-slider-response,
551,main,,NEGATIVE,,,,0.0-8.0-0.5,,,,,5000,The freedom that children are given should be determined by their age and maturity level and not by their sex.<br><br>,,119276,,22,html-slider-response,
551,main,,POSITIVE,,,,0.0-8.0-0.6,,7343,,8188,5000,Girls should be protected and watched over more than boys.<br><br>,,127466,,23,html-slider-response,
551,main,,POSITIVE,,,,0.0-8.0-0.7,,6668,,6832,5000,Only some types of work are appropriate for both men and women.<br><br>,,134300,,24,html-slider-response,
551,main,,NEGATIVE,,,,0.0-8.0-0.8,,7068,,7893,5000,We should stop thinking about whether people are male or female and focus on other characteristics.<br><br>,,142194,,25,html-slider-response,
551,main,,POSITIVE,,,,0.0-8.0-0.9,,5083,,10116,5000,A father’s major responsibility is to provide financially for his children.<br><br>,,152312,,26,html-slider-response,
551,main,,POSITIVE,,,,0.0-8.0-0.10,,4931,,10864,5000,Mothers should make most decisions about how children are brought up.<br><br>,,163177,,27,html-slider-response,
551,main,,POSITIVE,,,,0.0-8.0-0.11,,5551,,11092,5000,Some types of work are just not appropriate for women.<br><br>,,174270,,28,html-slider-response,
551,main,,NEGATIVE,,,,0.0-8.0-0.12,,7164,,6580,5000,People should be treated the same regardless of their sex.<br><br>,,180852,,29,html-slider-response,
551,main,,,,,,0.0-9.0,,0,,5399,,"<p><font size='3'>You have completed the questionnaire. There will now be an optional survey. Please answer the following questions if you feel comfortable doing so. If you do not wish to answer a question, please leave it blank. <br><br>When you're ready to procede, click ‘Continue’.</font></p>",,186252,,30,html-button-response,
551,main,,,,,,0.0-10.0,[0],{'Q0': 1},,4669,,,,190924,,31,survey-likert,
551,main,[],,,,,0.0-11.0,,"{'age': '31', 'enjoy': 'An average experiment', 'gender': 'Male', 'region': 'West - AK, CA, CO, HI, ID, MT, NV, OR, UT, WA, WY', 'correct': 'Yes', 'payment': 'The payment was fair', 'comments': '', 'language': 'english', 'education': 'Some college', 'question1': None}",,37446,,,,228434,,32,survey,
551,main,,,,,,0.0-12.0,,0,,2132,,Thank you for your time! Please click 'Finish' and then wait a moment until you're directed back to Prolific.<br><br>,,230568,,33,html-button-response,
482,main,,,[],[],[],0.0-0.0,,,,,,,True,249,False,0,preload,
482,main,,,,,,0.0-1.0,,0,,9218,,"<p><font size='3'>DESCRIPTION: You are invited to participate in a research study. Its general purpose is to understand how people perceive speech. We are interested in how people make use of varying properties of language to infer social information about a speaker. In this study, you will hear spoken sentences, and you will be asked to make simple decisions about the sentences you hear. Following this, you will be asked to complete a short questionnaire, where you will indicate on a sliding scale how much you agree or disagree with a series of statements. You will also be asked to complete an optional demographic survey. <br><br>TIME INVOLVEMENT: Your participation will take approximately 3 to 10 minutes. <br><br>RISKS AND BENEFITS: The foreseeable risks associated with this study are minimal. This judgment is based on a large body of experience with the same or similar procedures with people of similar ages, sex, origins, etc. Study data will be stored securely, in compliance with Stanford University standards, minimizing the risk of confidentiality breach. There are no known benefits to you for participating in this study, and we cannot and do not guarantee or promise that you will receive any benefits from this study. You will help us to understand how people perceive spoken language. <br><br>PAYMENT: You will be paid at the posted rate. <br><br>PARTICIPANT RIGHTS: If you have read this form and have decided to participate in this project, please understand your participation is voluntary and you have the right to withdraw your consent or discontinue participation at any time without penalty or loss of benefits to which you are otherwise entitled. The alternative is not to participate. You have the right to refuse to answer particular questions. The results of this research study may be presented at scientific or professional meetings or published in scientific journals. Your individual privacy will be maintained in all published and written data resulting from the study. In accordance with scientific norms, the data from this study may be used or shared with other researchers for future research (after removing personally identifying information) without additional consent from you. <br><br>CONTACT INFORMATION: If you have any questions, concerns or complaints about this research study, its procedures, risks and benefits, you should contact the Protocol Director Grace Brown at (616) 498-8188. If you are not satisfied with how this study is being conducted, or if you have any concerns, complaints, or general questions about the research or your rights as a participant, please contact the Stanford Institutional Review Board (IRB) to speak to someone independent of the research team at (650) 723-2480 or toll free at 1-866-680-2906. You can also write to the Stanford IRB, Stanford University, 3000 El Camino Real, Five Palo Alto Square, 4th Floor, Palo Alto, CA 94306 USA. <br><br>WAIVER OF DOCUMENTATION: If you agree to participate in this research, please click the 'Continue' button. </font></p>",,9470,,1,html-button-response,
482,main,,,,,,0.0-2.0,,0,,8999,,"<p><font size='3'>This study requires you to listen to audio clips. To ensure you can adequately hear the audio presented in this study, the next page will have an audio attention check. Please wear headphones, and be prepared to adjust the volume on your device if necessary. <br><br> When you are ready to begin the audio attention check, click 'Start'. </font></p>",,18470,,2,html-button-response,
482,main,,,,,,0.0-3.0,,2,incorrect,3211,,audio/gift.wav,,22264,,3,audio-button-response,
482,main,,,,,,0.0-4.0,,0,,1991,,<p>Correct! You are ready to begin the study.</p>,,24258,,4,html-button-response,
482,main,,,,,,0.0-5.0,,0,,23974,,"<p><font size='3'>In this study, you will listen to a series of sentences. Each sentence is produced by a different speaker. While listening to each sentence, you will be prompted to rate the social characteristics of its speaker. To rate the social characteristics of a speaker, click along the scale that appears on your screen. You can click along this scale after the speaker stops talking. Try to respond as quickly as you can. The study will advance automatically if you do not respond within ten seconds. <br><br>Make sure you are wearing headphones. When you're ready to hear the first speaker, click ‘Start’. </font></p>",,48235,,5,html-button-response,
482,main,,625,,,,0.0-6.0-0.0,,2009,,9971,5000,audio/625_B2_CN7.wav,,58206,,6,audio-slider-response,
482,main,,,,,,0.0-6.0-1.0,,,,,,,,59210,,7,html-keyboard-response,
482,main,,193,,,,0.0-6.0-0.1,,3980,,9221,5000,audio/193_B1_CN7.wav,,68426,,8,audio-slider-response,
482,main,,,,,,0.0-6.0-1.1,,,,,,,,69440,,9,html-keyboard-response,
482,main,,340,,,,0.0-6.0-0.2,,2064,,6912,5000,audio/340_B1_CN7.wav,,76347,,10,audio-slider-response,
482,main,,,,,,0.0-6.0-1.2,,,,,,,,77349,,11,html-keyboard-response,
482,main,,246,,,,0.0-6.0-0.3,,0,,6379,5000,audio/246_B2_CN7.wav,,83729,,12,audio-slider-response,
482,main,,,,,,0.0-6.0-1.3,,,,,,,,84743,,13,html-keyboard-response,
482,main,,723,,,,0.0-6.0-0.4,,5620,,7960,5000,audio/723_B1_CN7.wav,,92706,,14,audio-slider-response,
482,main,,,,,,0.0-6.0-1.4,,,,,,,,93717,,15,html-keyboard-response,
482,main,,,,,,0.0-7.0,,0,,8547,,"<p><font size='3'>You have completed the listening trials. You will now complete a short questionnaire. During the questionnaire, you will see a series of statements alongside a scale. Click along the scale to indicate how much you agree or disagree with the statement. Upon completion of the questionnaire, you will be asked to fill out an optional demographic survey. <br><br>When you're ready to begin the questionnaire, click ‘Continue’.</font></p>",,102266,,16,html-button-response,
482,main,,NEGATIVE,,,,0.0-8.0-0.0,,5221,,10605,5000,We should stop thinking about whether people are male or female and focus on other characteristics.<br><br>,,112876,,17,html-slider-response,
482,main,,NEGATIVE,,,,0.0-8.0-0.1,,9921,,11374,5000,People should be treated the same regardless of their sex.<br><br>,,124254,,18,html-slider-response,
482,main,,NEGATIVE,,,,0.0-8.0-0.2,,3898,,10480,5000,People can be both aggressive and nurturing regardless of sex.<br><br>,,134736,,19,html-slider-response,
482,main,,POSITIVE,,,,0.0-8.0-0.3,,0,,7736,5000,Men are more sexual than women.<br><br>,,142475,,20,html-slider-response,
482,main,,POSITIVE,,,,0.0-8.0-0.4,,3787,,6116,5000,A father’s major responsibility is to provide financially for his children.<br><br>,,148594,,21,html-slider-response,
482,main,,POSITIVE,,,,0.0-8.0-0.5,,5000,,11508,5000,"For many important jobs, it is better to choose men instead of women.<br><br>",,160104,,22,html-slider-response,
482,main,,POSITIVE,,,,0.0-8.0-0.6,,3539,,6859,5000,Mothers should make most decisions about how children are brought up.<br><br>,,166966,,23,html-slider-response,
482,main,,NEGATIVE,,,,0.0-8.0-0.7,,10000,,9087,5000,The freedom that children are given should be determined by their age and maturity level and not by their sex.<br><br>,,176055,,24,html-slider-response,
482,main,,POSITIVE,,,,0.0-8.0-0.8,,8970,,15298,5000,Only some types of work are appropriate for both men and women.<br><br>,,191355,,25,html-slider-response,
482,main,,POSITIVE,,,,0.0-8.0-0.9,,7412,,8868,5000,Girls should be protected and watched over more than boys.<br><br>,,200225,,26,html-slider-response,
482,main,,POSITIVE,,,,0.0-8.0-0.10,,10000,,5313,5000,Some types of work are just not appropriate for women.<br><br>,,205541,,27,html-slider-response,
482,main,,NEGATIVE,,,,0.0-8.0-0.11,,9204,,5453,5000,Tasks around the house should not be assigned by sex.<br><br>,,210996,,28,html-slider-response,
482,main,,POSITIVE,,,,0.0-8.0-0.12,,424,,4790,5000,Mothers should work only if necessary.<br><br>,,215788,,29,html-slider-response,
482,main,,,,,,0.0-9.0,,0,,7015,,"<p><font size='3'>You have completed the questionnaire. There will now be an optional survey. Please answer the following questions if you feel comfortable doing so. If you do not wish to answer a question, please leave it blank. <br><br>When you're ready to procede, click ‘Continue’.</font></p>",,222805,,30,html-button-response,
482,main,,,,,,0.0-10.0,[0],{'Q0': 0},,10135,,,,232944,,31,survey-likert,
482,main,[],,,,,0.0-11.0,,"{'age': '38', 'enjoy': 'Better than the average experiment', 'gender': 'Male', 'region': 'Southwest - AZ, NM, OK, TX', 'correct': 'Yes', 'payment': 'The payment was fair', 'comments': 'No.', 'language': 'English', 'education': 'Some college', 'question1': None}",,59972,,,,292986,,32,survey,
482,main,,,,,,0.0-12.0,,0,,4499,,Thank you for your time! Please click 'Finish' and then wait a moment until you're directed back to Prolific.<br><br>,,297486,,33,html-button-response,
523,main,,,[],[],[],0.0-0.0,,,,,,,True,81,False,0,preload,
523,main,,,,,,0.0-1.0,,0,,3748,,"<p><font size='3'>DESCRIPTION: You are invited to participate in a research study. Its general purpose is to understand how people perceive speech. We are interested in how people make use of varying properties of language to infer social information about a speaker. In this study, you will hear spoken sentences, and you will be asked to make simple decisions about the sentences you hear. Following this, you will be asked to complete a short questionnaire, where you will indicate on a sliding scale how much you agree or disagree with a series of statements. You will also be asked to complete an optional demographic survey. <br><br>TIME INVOLVEMENT: Your participation will take approximately 3 to 10 minutes. <br><br>RISKS AND BENEFITS: The foreseeable risks associated with this study are minimal. This judgment is based on a large body of experience with the same or similar procedures with people of similar ages, sex, origins, etc. Study data will be stored securely, in compliance with Stanford University standards, minimizing the risk of confidentiality breach. There are no known benefits to you for participating in this study, and we cannot and do not guarantee or promise that you will receive any benefits from this study. You will help us to understand how people perceive spoken language. <br><br>PAYMENT: You will be paid at the posted rate. <br><br>PARTICIPANT RIGHTS: If you have read this form and have decided to participate in this project, please understand your participation is voluntary and you have the right to withdraw your consent or discontinue participation at any time without penalty or loss of benefits to which you are otherwise entitled. The alternative is not to participate. You have the right to refuse to answer particular questions. The results of this research study may be presented at scientific or professional meetings or published in scientific journals. Your individual privacy will be maintained in all published and written data resulting from the study. In accordance with scientific norms, the data from this study may be used or shared with other researchers for future research (after removing personally identifying information) without additional consent from you. <br><br>CONTACT INFORMATION: If you have any questions, concerns or complaints about this research study, its procedures, risks and benefits, you should contact the Protocol Director Grace Brown at (616) 498-8188. If you are not satisfied with how this study is being conducted, or if you have any concerns, complaints, or general questions about the research or your rights as a participant, please contact the Stanford Institutional Review Board (IRB) to speak to someone independent of the research team at (650) 723-2480 or toll free at 1-866-680-2906. You can also write to the Stanford IRB, Stanford University, 3000 El Camino Real, Five Palo Alto Square, 4th Floor, Palo Alto, CA 94306 USA. <br><br>WAIVER OF DOCUMENTATION: If you agree to participate in this research, please click the 'Continue' button. </font></p>",,3830,,1,html-button-response,
523,main,,,,,,0.0-2.0,,0,,6616,,"<p><font size='3'>This study requires you to listen to audio clips. To ensure you can adequately hear the audio presented in this study, the next page will have an audio attention check. Please wear headphones, and be prepared to adjust the volume on your device if necessary. <br><br> When you are ready to begin the audio attention check, click 'Start'. </font></p>",,10448,,2,html-button-response,
523,main,,,,,,0.0-3.0,,2,incorrect,2731,,audio/gift.wav,,13336,,3,audio-button-response,
523,main,,,,,,0.0-4.0,,0,,1126,,<p>Correct! You are ready to begin the study.</p>,,14463,,4,html-button-response,
523,main,,,,,,0.0-5.0,,0,,5499,,"<p><font size='3'>In this study, you will listen to a series of sentences. Each sentence is produced by a different speaker. While listening to each sentence, you will be prompted to rate the social characteristics of its speaker. To rate the social characteristics of a speaker, click along the scale that appears on your screen. You can click along this scale after the speaker stops talking. Try to respond as quickly as you can. The study will advance automatically if you do not respond within ten seconds. <br><br>Make sure you are wearing headphones. When you're ready to hear the first speaker, click ‘Start’. </font></p>",,19964,,5,html-button-response,
523,main,,246,,,,0.0-6.0-0.0,,0,,8411,5000,audio/246_B2_CN7.wav,,28374,,6,audio-slider-response,
523,main,,,,,,0.0-6.0-1.0,,,,,,,,29391,,7,html-keyboard-response,
523,main,,625,,,,0.0-6.0-0.1,,7422,,5400,5000,audio/625_B2_CN7.wav,,34795,,8,audio-slider-response,
523,main,,,,,,0.0-6.0-1.1,,,,,,,,35797,,9,html-keyboard-response,
523,main,,723,,,,0.0-6.0-0.2,,3758,,4872,5000,audio/723_B1_CN7.wav,,40664,,10,audio-slider-response,
523,main,,,,,,0.0-6.0-1.2,,,,,,,,41677,,11,html-keyboard-response,
523,main,,193,,,,0.0-6.0-0.3,,1439,,5011,5000,audio/193_B1_CN7.wav,,46682,,12,audio-slider-response,
523,main,,,,,,0.0-6.0-1.3,,,,,,,,47700,,13,html-keyboard-response,
523,main,,340,,,,0.0-6.0-0.4,,6139,,3739,5000,audio/340_B1_CN7.wav,,51443,,14,audio-slider-response,
523,main,,,,,,0.0-6.0-1.4,,,,,,,,52458,,15,html-keyboard-response,
523,main,,,,,,0.0-7.0,,0,,4812,,"<p><font size='3'>You have completed the listening trials. You will now complete a short questionnaire. During the questionnaire, you will see a series of statements alongside a scale. Click along the scale to indicate how much you agree or disagree with the statement. Upon completion of the questionnaire, you will be asked to fill out an optional demographic survey. <br><br>When you're ready to begin the questionnaire, click ‘Continue’.</font></p>",,57271,,16,html-button-response,
523,main,,NEGATIVE,,,,0.0-8.0-0.0,,10000,,4203,5000,People should be treated the same regardless of their sex.<br><br>,,61478,,17,html-slider-response,
523,main,,POSITIVE,,,,0.0-8.0-0.1,,10000,,3991,5000,Mothers should work only if necessary.<br><br>,,65471,,18,html-slider-response,
523,main,,NEGATIVE,,,,0.0-8.0-0.2,,10000,,3747,5000,Tasks around the house should not be assigned by sex.<br><br>,,69221,,19,html-slider-response,
523,main,,POSITIVE,,,,0.0-8.0-0.3,,7319,,3360,5000,A father’s major responsibility is to provide financially for his children.<br><br>,,72582,,20,html-slider-response,
523,main,,NEGATIVE,,,,0.0-8.0-0.4,,10000,,4190,5000,The freedom that children are given should be determined by their age and maturity level and not by their sex.<br><br>,,76775,,21,html-slider-response,
523,main,,NEGATIVE,,,,0.0-8.0-0.5,,9845,,7429,5000,We should stop thinking about whether people are male or female and focus on other characteristics.<br><br>,,84205,,22,html-slider-response,
523,main,,NEGATIVE,,,,0.0-8.0-0.6,,9886,,6192,5000,People can be both aggressive and nurturing regardless of sex.<br><br>,,90399,,23,html-slider-response,
523,main,,POSITIVE,,,,0.0-8.0-0.7,,3365,,4162,5000,"For many important jobs, it is better to choose men instead of women.<br><br>",,94563,,24,html-slider-response,
523,main,,POSITIVE,,,,0.0-8.0-0.8,,8955,,3702,5000,Mothers should make most decisions about how children are brought up.<br><br>,,98267,,25,html-slider-response,
523,main,,POSITIVE,,,,0.0-8.0-0.9,,9431,,3809,5000,Some types of work are just not appropriate for women.<br><br>,,102078,,26,html-slider-response,
523,main,,POSITIVE,,,,0.0-8.0-0.10,,6325,,3769,5000,Girls should be protected and watched over more than boys.<br><br>,,105849,,27,html-slider-response,
523,main,,POSITIVE,,,,0.0-8.0-0.11,,10000,,3585,5000,Men are more sexual than women.<br><br>,,109436,,28,html-slider-response,
523,main,,POSITIVE,,,,0.0-8.0-0.12,,8478,,5053,5000,Only some types of work are appropriate for both men and women.<br><br>,,114491,,29,html-slider-response,
523,main,,,,,,0.0-9.0,,0,,3019,,"<p><font size='3'>You have completed the questionnaire. There will now be an optional survey. Please answer the following questions if you feel comfortable doing so. If you do not wish to answer a question, please leave it blank. <br><br>When you're ready to procede, click ‘Continue’.</font></p>",,117512,,30,html-button-response,
523,main,,,,,,0.0-10.0,[0],{'Q0': 0},,4914,,,,122431,,31,survey-likert,
523,main,[],,,,,0.0-11.0,,"{'age': '20', 'enjoy': 'An average experiment', 'gender': 'Male', 'region': 'West - AK, CA, CO, HI, ID, MT, NV, OR, UT, WA, WY', 'correct': 'Yes', 'payment': 'The payment was too low', 'comments': 'no', 'language': 'English', 'education': 'Graduated high school', 'question1': None}",,55127,,,,177649,,32,survey,
523,main,,,,,,0.0-12.0,,0,,2300,,Thank you for your time! Please click 'Finish' and then wait a moment until you're directed back to Prolific.<br><br>,,179951,,33,html-button-response,
540,main,,,[],[],[],0.0-0.0,,,,,,,True,4626,False,0,preload,
540,main,,,,,,0.0-1.0,,0,,2535,,"<p><font size='3'>DESCRIPTION: You are invited to participate in a research study. Its general purpose is to understand how people perceive speech. We are interested in how people make use of varying properties of language to infer social information about a speaker. In this study, you will hear spoken sentences, and you will be asked to make simple decisions about the sentences you hear. Following this, you will be asked to complete a short questionnaire, where you will indicate on a sliding scale how much you agree or disagree with a series of statements. You will also be asked to complete an optional demographic survey. <br><br>TIME INVOLVEMENT: Your participation will take approximately 3 to 10 minutes. <br><br>RISKS AND BENEFITS: The foreseeable risks associated with this study are minimal. This judgment is based on a large body of experience with the same or similar procedures with people of similar ages, sex, origins, etc. Study data will be stored securely, in compliance with Stanford University standards, minimizing the risk of confidentiality breach. There are no known benefits to you for participating in this study, and we cannot and do not guarantee or promise that you will receive any benefits from this study. You will help us to understand how people perceive spoken language. <br><br>PAYMENT: You will be paid at the posted rate. <br><br>PARTICIPANT RIGHTS: If you have read this form and have decided to participate in this project, please understand your participation is voluntary and you have the right to withdraw your consent or discontinue participation at any time without penalty or loss of benefits to which you are otherwise entitled. The alternative is not to participate. You have the right to refuse to answer particular questions. The results of this research study may be presented at scientific or professional meetings or published in scientific journals. Your individual privacy will be maintained in all published and written data resulting from the study. In accordance with scientific norms, the data from this study may be used or shared with other researchers for future research (after removing personally identifying information) without additional consent from you. <br><br>CONTACT INFORMATION: If you have any questions, concerns or complaints about this research study, its procedures, risks and benefits, you should contact the Protocol Director Grace Brown at (616) 498-8188. If you are not satisfied with how this study is being conducted, or if you have any concerns, complaints, or general questions about the research or your rights as a participant, please contact the Stanford Institutional Review Board (IRB) to speak to someone independent of the research team at (650) 723-2480 or toll free at 1-866-680-2906. You can also write to the Stanford IRB, Stanford University, 3000 El Camino Real, Five Palo Alto Square, 4th Floor, Palo Alto, CA 94306 USA. <br><br>WAIVER OF DOCUMENTATION: If you agree to participate in this research, please click the 'Continue' button. </font></p>",,7161,,1,html-button-response,
540,main,,,,,,0.0-2.0,,0,,6022,,"<p><font size='3'>This study requires you to listen to audio clips. To ensure you can adequately hear the audio presented in this study, the next page will have an audio attention check. Please wear headphones, and be prepared to adjust the volume on your device if necessary. <br><br> When you are ready to begin the audio attention check, click 'Start'. </font></p>",,13184,,2,html-button-response,
540,main,,,,,,0.0-3.0,,2,incorrect,4240,,audio/gift.wav,,17977,,3,audio-button-response,
540,main,,,,,,0.0-4.0,,0,,1457,,<p>Correct! You are ready to begin the study.</p>,,19435,,4,html-button-response,
540,main,,,,,,0.0-5.0,,0,,10185,,"<p><font size='3'>In this study, you will listen to a series of sentences. Each sentence is produced by a different speaker. While listening to each sentence, you will be prompted to rate the social characteristics of its speaker. To rate the social characteristics of a speaker, click along the scale that appears on your screen. You can click along this scale after the speaker stops talking. Try to respond as quickly as you can. The study will advance automatically if you do not respond within ten seconds. <br><br>Make sure you are wearing headphones. When you're ready to hear the first speaker, click ‘Start’. </font></p>",,29621,,5,html-button-response,
540,main,,340,,,,0.0-6.0-0.0,,2805,,7989,5000,audio/340_B1_CN7.wav,,37617,,6,audio-slider-response,
540,main,,,,,,0.0-6.0-1.0,,,,,,,,38625,,7,html-keyboard-response,
540,main,,723,,,,0.0-6.0-0.1,,3841,,4811,5000,audio/723_B1_CN7.wav,,43433,,8,audio-slider-response,
540,main,,,,,,0.0-6.0-1.1,,,,,,,,44439,,9,html-keyboard-response,
540,main,,625,,,,0.0-6.0-0.2,,5248,,4709,5000,audio/625_B2_CN7.wav,,49145,,10,audio-slider-response,
540,main,,,,,,0.0-6.0-1.2,,,,,,,,50149,,11,html-keyboard-response,
540,main,,246,,,,0.0-6.0-0.3,,756,,5451,5000,audio/246_B2_CN7.wav,,55593,,12,audio-slider-response,
540,main,,,,,,0.0-6.0-1.3,,,,,,,,56601,,13,html-keyboard-response,
540,main,,193,,,,0.0-6.0-0.4,,5870,,6331,5000,audio/193_B1_CN7.wav,,62937,,14,audio-slider-response,
540,main,,,,,,0.0-6.0-1.4,,,,,,,,63951,,15,html-keyboard-response,
540,main,,,,,,0.0-7.0,,0,,3960,,"<p><font size='3'>You have completed the listening trials. You will now complete a short questionnaire. During the questionnaire, you will see a series of statements alongside a scale. Click along the scale to indicate how much you agree or disagree with the statement. Upon completion of the questionnaire, you will be asked to fill out an optional demographic survey. <br><br>When you're ready to begin the questionnaire, click ‘Continue’.</font></p>",,67912,,16,html-button-response,
540,main,,POSITIVE,,,,0.0-8.0-0.0,,6822,,4012,5000,Men are more sexual than women.<br><br>,,71926,,17,html-slider-response,
540,main,,POSITIVE,,,,0.0-8.0-0.1,,3675,,4325,5000,Only some types of work are appropriate for both men and women.<br><br>,,76252,,18,html-slider-response,
540,main,,POSITIVE,,,,0.0-8.0-0.2,,4710,,3387,5000,Some types of work are just not appropriate for women.<br><br>,,79640,,19,html-slider-response,
540,main,,POSITIVE,,,,0.0-8.0-0.3,,5684,,3667,5000,A father’s major responsibility is to provide financially for his children.<br><br>,,83309,,20,html-slider-response,
540,main,,POSITIVE,,,,0.0-8.0-0.4,,2474,,3613,5000,"For many important jobs, it is better to choose men instead of women.<br><br>",,86922,,21,html-slider-response,
540,main,,NEGATIVE,,,,0.0-8.0-0.5,,9369,,5437,5000,Tasks around the house should not be assigned by sex.<br><br>,,92360,,22,html-slider-response,
540,main,,NEGATIVE,,,,0.0-8.0-0.6,,10000,,3195,5000,People can be both aggressive and nurturing regardless of sex.<br><br>,,95556,,23,html-slider-response,
540,main,,NEGATIVE,,,,0.0-8.0-0.7,,10000,,7107,5000,The freedom that children are given should be determined by their age and maturity level and not by their sex.<br><br>,,102664,,24,html-slider-response,
540,main,,NEGATIVE,,,,0.0-8.0-0.8,,10000,,2875,5000,People should be treated the same regardless of their sex.<br><br>,,105540,,25,html-slider-response,
540,main,,POSITIVE,,,,0.0-8.0-0.9,,652,,3035,5000,Mothers should work only if necessary.<br><br>,,108577,,26,html-slider-response,
540,main,,POSITIVE,,,,0.0-8.0-0.10,,1832,,3683,5000,Girls should be protected and watched over more than boys.<br><br>,,112260,,27,html-slider-response,
540,main,,NEGATIVE,,,,0.0-8.0-0.11,,10000,,3636,5000,We should stop thinking about whether people are male or female and focus on other characteristics.<br><br>,,115897,,28,html-slider-response,
540,main,,POSITIVE,,,,0.0-8.0-0.12,,1460,,3782,5000,Mothers should make most decisions about how children are brought up.<br><br>,,119680,,29,html-slider-response,
540,main,,,,,,0.0-9.0,,0,,5400,,"<p><font size='3'>You have completed the questionnaire. There will now be an optional survey. Please answer the following questions if you feel comfortable doing so. If you do not wish to answer a question, please leave it blank. <br><br>When you're ready to procede, click ‘Continue’.</font></p>",,125081,,30,html-button-response,
540,main,,,,,,0.0-10.0,[0],{'Q0': 2},,3973,,,,129056,,31,survey-likert,
540,main,[],,,,,0.0-11.0,,"{'age': '37', 'enjoy': 'An average experiment', 'gender': 'Female', 'region': 'Midwest - IA, IL, IN, KS, MI, MN, MO, ND, NE, OH, SD, WI', 'correct': 'Yes', 'payment': 'The payment was fair', 'comments': '', 'language': 'English', 'education': 'Some college', 'question1': None}",,26388,,,,155499,,32,survey,
540,main,,,,,,0.0-12.0,,0,,1169,,Thank you for your time! Please click 'Finish' and then wait a moment until you're directed back to Prolific.<br><br>,,156670,,33,html-button-response,
505,main,,,[],[],[],0.0-0.0,,,,,,,True,157,False,0,preload,
505,main,,,,,,0.0-1.0,,0,,4808,,"<p><font size='3'>DESCRIPTION: You are invited to participate in a research study. Its general purpose is to understand how people perceive speech. We are interested in how people make use of varying properties of language to infer social information about a speaker. In this study, you will hear spoken sentences, and you will be asked to make simple decisions about the sentences you hear. Following this, you will be asked to complete a short questionnaire, where you will indicate on a sliding scale how much you agree or disagree with a series of statements. You will also be asked to complete an optional demographic survey. <br><br>TIME INVOLVEMENT: Your participation will take approximately 3 to 10 minutes. <br><br>RISKS AND BENEFITS: The foreseeable risks associated with this study are minimal. This judgment is based on a large body of experience with the same or similar procedures with people of similar ages, sex, origins, etc. Study data will be stored securely, in compliance with Stanford University standards, minimizing the risk of confidentiality breach. There are no known benefits to you for participating in this study, and we cannot and do not guarantee or promise that you will receive any benefits from this study. You will help us to understand how people perceive spoken language. <br><br>PAYMENT: You will be paid at the posted rate. <br><br>PARTICIPANT RIGHTS: If you have read this form and have decided to participate in this project, please understand your participation is voluntary and you have the right to withdraw your consent or discontinue participation at any time without penalty or loss of benefits to which you are otherwise entitled. The alternative is not to participate. You have the right to refuse to answer particular questions. The results of this research study may be presented at scientific or professional meetings or published in scientific journals. Your individual privacy will be maintained in all published and written data resulting from the study. In accordance with scientific norms, the data from this study may be used or shared with other researchers for future research (after removing personally identifying information) without additional consent from you. <br><br>CONTACT INFORMATION: If you have any questions, concerns or complaints about this research study, its procedures, risks and benefits, you should contact the Protocol Director Grace Brown at (616) 498-8188. If you are not satisfied with how this study is being conducted, or if you have any concerns, complaints, or general questions about the research or your rights as a participant, please contact the Stanford Institutional Review Board (IRB) to speak to someone independent of the research team at (650) 723-2480 or toll free at 1-866-680-2906. You can also write to the Stanford IRB, Stanford University, 3000 El Camino Real, Five Palo Alto Square, 4th Floor, Palo Alto, CA 94306 USA. <br><br>WAIVER OF DOCUMENTATION: If you agree to participate in this research, please click the 'Continue' button. </font></p>",,4966,,1,html-button-response,
505,main,,,,,,0.0-2.0,,0,,6237,,"<p><font size='3'>This study requires you to listen to audio clips. To ensure you can adequately hear the audio presented in this study, the next page will have an audio attention check. Please wear headphones, and be prepared to adjust the volume on your device if necessary. <br><br> When you are ready to begin the audio attention check, click 'Start'. </font></p>",,11204,,2,html-button-response,
505,main,,,,,,0.0-3.0,,2,incorrect,3061,,audio/gift.wav,,16353,,3,audio-button-response,
505,main,,,,,,0.0-4.0,,0,,1600,,<p>Correct! You are ready to begin the study.</p>,,17954,,4,html-button-response,
505,main,,,,,,0.0-5.0,,0,,10911,,"<p><font size='3'>In this study, you will listen to a series of sentences. Each sentence is produced by a different speaker. While listening to each sentence, you will be prompted to rate the social characteristics of its speaker. To rate the social characteristics of a speaker, click along the scale that appears on your screen. You can click along this scale after the speaker stops talking. Try to respond as quickly as you can. The study will advance automatically if you do not respond within ten seconds. <br><br>Make sure you are wearing headphones. When you're ready to hear the first speaker, click ‘Start’. </font></p>",,28866,,5,html-button-response,
505,main,,246,,,,0.0-6.0-0.0,,,,,5000,audio/246_B2_CN7.wav,,38869,,6,audio-slider-response,
505,main,,,,,,0.0-6.0-1.0,,,,,,,,39878,,7,html-keyboard-response,
505,main,,340,,,,0.0-6.0-0.1,,,,,5000,audio/340_B1_CN7.wav,,49898,,8,audio-slider-response,
505,main,,,,,,0.0-6.0-1.1,,,,,,,,50901,,9,html-keyboard-response,
505,main,,625,,,,0.0-6.0-0.2,,6682,,6059,5000,audio/625_B2_CN7.wav,,56965,,10,audio-slider-response,
505,main,,,,,,0.0-6.0-1.2,,,,,,,,57973,,11,html-keyboard-response,
505,main,,193,,,,0.0-6.0-0.3,,,,,5000,audio/193_B1_CN7.wav,,67981,,12,audio-slider-response,
505,main,,,,,,0.0-6.0-1.3,,,,,,,,68988,,13,html-keyboard-response,
505,main,,723,,,,0.0-6.0-0.4,,10000,,4979,5000,audio/723_B1_CN7.wav,,73965,,14,audio-slider-response,
505,main,,,,,,0.0-6.0-1.4,,,,,,,,74975,,15,html-keyboard-response,
505,main,,,,,,0.0-7.0,,0,,1813,,"<p><font size='3'>You have completed the listening trials. You will now complete a short questionnaire. During the questionnaire, you will see a series of statements alongside a scale. Click along the scale to indicate how much you agree or disagree with the statement. Upon completion of the questionnaire, you will be asked to fill out an optional demographic survey. <br><br>When you're ready to begin the questionnaire, click ‘Continue’.</font></p>",,76788,,16,html-button-response,
505,main,,POSITIVE,,,,0.0-8.0-0.0,,10000,,6433,5000,Some types of work are just not appropriate for women.<br><br>,,83222,,17,html-slider-response,
505,main,,POSITIVE,,,,0.0-8.0-0.1,,2877,,6439,5000,"For many important jobs, it is better to choose men instead of women.<br><br>",,89662,,18,html-slider-response,
505,main,,POSITIVE,,,,0.0-8.0-0.2,,2436,,8572,5000,Mothers should work only if necessary.<br><br>,,98235,,19,html-slider-response,
505,main,,NEGATIVE,,,,0.0-8.0-0.3,,10000,,4237,5000,People can be both aggressive and nurturing regardless of sex.<br><br>,,102473,,20,html-slider-response,
505,main,,NEGATIVE,,,,0.0-8.0-0.4,,10000,,4004,5000,Tasks around the house should not be assigned by sex.<br><br>,,106478,,21,html-slider-response,
505,main,,POSITIVE,,,,0.0-8.0-0.5,,10000,,3174,5000,Men are more sexual than women.<br><br>,,109653,,22,html-slider-response,
505,main,,POSITIVE,,,,0.0-8.0-0.6,,10000,,4983,5000,Only some types of work are appropriate for both men and women.<br><br>,,114637,,23,html-slider-response,
505,main,,NEGATIVE,,,,0.0-8.0-0.7,,0,,4709,5000,We should stop thinking about whether people are male or female and focus on other characteristics.<br><br>,,119347,,24,html-slider-response,
505,main,,NEGATIVE,,,,0.0-8.0-0.8,,10000,,6459,5000,The freedom that children are given should be determined by their age and maturity level and not by their sex.<br><br>,,125807,,25,html-slider-response,
505,main,,NEGATIVE,,,,0.0-8.0-0.9,,10000,,4446,5000,People should be treated the same regardless of their sex.<br><br>,,130254,,26,html-slider-response,
505,main,,POSITIVE,,,,0.0-8.0-0.10,,5951,,9563,5000,Girls should be protected and watched over more than boys.<br><br>,,139818,,27,html-slider-response,
505,main,,POSITIVE,,,,0.0-8.0-0.11,,,,,5000,A father’s major responsibility is to provide financially for his children.<br><br>,,159820,,28,html-slider-response,
505,main,,POSITIVE,,,,0.0-8.0-0.12,,,,,5000,Mothers should make most decisions about how children are brought up.<br><br>,,179821,,29,html-slider-response,
505,main,,,,,,0.0-9.0,,0,,54020,,"<p><font size='3'>You have completed the questionnaire. There will now be an optional survey. Please answer the following questions if you feel comfortable doing so. If you do not wish to answer a question, please leave it blank. <br><br>When you're ready to procede, click ‘Continue’.</font></p>",,233842,,30,html-button-response,
505,main,,,,,,0.0-10.0,[0],{'Q0': 3},,3630,,,,237473,,31,survey-likert,
505,main,[],,,,,0.0-11.0,,"{'age': '48', 'enjoy': 'An average experiment', 'gender': 'Female', 'region': 'Southeast - AL, AR, FL, GA, KY, LA, MS, NC, SC, TN, VA, WV', 'correct': 'Yes', 'payment': 'The payment was fair', 'comments': '', 'language': 'english', 'education': 'Graduated college', 'question1': None}",,39868,,,,277390,,32,survey,
505,main,,,,,,0.0-12.0,,0,,1628,,Thank you for your time! Please click 'Finish' and then wait a moment until you're directed back to Prolific.<br><br>,,279019,,33,html-button-response,
449,main,,,[],[],[],0.0-0.0,,,,,,,True,182,False,0,preload,
449,main,,,,,,0.0-1.0,,0,,12099,,"<p><font size='3'>DESCRIPTION: You are invited to participate in a research study. Its general purpose is to understand how people perceive speech. We are interested in how people make use of varying properties of language to infer social information about a speaker. In this study, you will hear spoken sentences, and you will be asked to make simple decisions about the sentences you hear. Following this, you will be asked to complete a short questionnaire, where you will indicate on a sliding scale how much you agree or disagree with a series of statements. You will also be asked to complete an optional demographic survey. <br><br>TIME INVOLVEMENT: Your participation will take approximately 3 to 10 minutes. <br><br>RISKS AND BENEFITS: The foreseeable risks associated with this study are minimal. This judgment is based on a large body of experience with the same or similar procedures with people of similar ages, sex, origins, etc. Study data will be stored securely, in compliance with Stanford University standards, minimizing the risk of confidentiality breach. There are no known benefits to you for participating in this study, and we cannot and do not guarantee or promise that you will receive any benefits from this study. You will help us to understand how people perceive spoken language. <br><br>PAYMENT: You will be paid at the posted rate. <br><br>PARTICIPANT RIGHTS: If you have read this form and have decided to participate in this project, please understand your participation is voluntary and you have the right to withdraw your consent or discontinue participation at any time without penalty or loss of benefits to which you are otherwise entitled. The alternative is not to participate. You have the right to refuse to answer particular questions. The results of this research study may be presented at scientific or professional meetings or published in scientific journals. Your individual privacy will be maintained in all published and written data resulting from the study. In accordance with scientific norms, the data from this study may be used or shared with other researchers for future research (after removing personally identifying information) without additional consent from you. <br><br>CONTACT INFORMATION: If you have any questions, concerns or complaints about this research study, its procedures, risks and benefits, you should contact the Protocol Director Grace Brown at (616) 498-8188. If you are not satisfied with how this study is being conducted, or if you have any concerns, complaints, or general questions about the research or your rights as a participant, please contact the Stanford Institutional Review Board (IRB) to speak to someone independent of the research team at (650) 723-2480 or toll free at 1-866-680-2906. You can also write to the Stanford IRB, Stanford University, 3000 El Camino Real, Five Palo Alto Square, 4th Floor, Palo Alto, CA 94306 USA. <br><br>WAIVER OF DOCUMENTATION: If you agree to participate in this research, please click the 'Continue' button. </font></p>",,12283,,1,html-button-response,
449,main,,,,,,0.0-2.0,,0,,4672,,"<p><font size='3'>This study requires you to listen to audio clips. To ensure you can adequately hear the audio presented in this study, the next page will have an audio attention check. Please wear headphones, and be prepared to adjust the volume on your device if necessary. <br><br> When you are ready to begin the audio attention check, click 'Start'. </font></p>",,16956,,2,html-button-response,
449,main,,,,,,0.0-3.0,,2,incorrect,4261,,audio/gift.wav,,21343,,3,audio-button-response,
449,main,,,,,,0.0-4.0,,0,,1628,,<p>Correct! You are ready to begin the study.</p>,,22972,,4,html-button-response,
449,main,,,,,,0.0-5.0,,0,,11733,,"<p><font size='3'>In this study, you will listen to a series of sentences. Each sentence is produced by a different speaker. While listening to each sentence, you will be prompted to rate the social characteristics of its speaker. To rate the social characteristics of a speaker, click along the scale that appears on your screen. You can click along this scale after the speaker stops talking. Try to respond as quickly as you can. The study will advance automatically if you do not respond within ten seconds. <br><br>Make sure you are wearing headphones. When you're ready to hear the first speaker, click ‘Start’. </font></p>",,34707,,5,html-button-response,
449,main,,193,,,,0.0-6.0-0.0,,,,,5000,audio/193_B1_CN7.wav,,44711,,6,audio-slider-response,
449,main,,,,,,0.0-6.0-1.0,,,,,,,,45714,,7,html-keyboard-response,
449,main,,625,,,,0.0-6.0-0.1,,,,,5000,audio/625_B2_CN7.wav,,55718,,8,audio-slider-response,
449,main,,,,,,0.0-6.0-1.1,,,,,,,,56722,,9,html-keyboard-response,
449,main,,340,,,,0.0-6.0-0.2,,5786,,4569,5000,audio/340_B1_CN7.wav,,61286,,10,audio-slider-response,
449,main,,,,,,0.0-6.0-1.2,,,,,,,,62288,,11,html-keyboard-response,
449,main,,246,,,,0.0-6.0-0.3,,2239,,5317,5000,audio/246_B2_CN7.wav,,67605,,12,audio-slider-response,
449,main,,,,,,0.0-6.0-1.3,,,,,,,,68607,,13,html-keyboard-response,
449,main,,723,,,,0.0-6.0-0.4,,7434,,4580,5000,audio/723_B1_CN7.wav,,73188,,14,audio-slider-response,
449,main,,,,,,0.0-6.0-1.4,,,,,,,,74189,,15,html-keyboard-response,
449,main,,,,,,0.0-7.0,,0,,2375,,"<p><font size='3'>You have completed the listening trials. You will now complete a short questionnaire. During the questionnaire, you will see a series of statements alongside a scale. Click along the scale to indicate how much you agree or disagree with the statement. Upon completion of the questionnaire, you will be asked to fill out an optional demographic survey. <br><br>When you're ready to begin the questionnaire, click ‘Continue’.</font></p>",,76566,,16,html-button-response,
449,main,,POSITIVE,,,,0.0-8.0-0.0,,10000,,7002,5000,Some types of work are just not appropriate for women.<br><br>,,83569,,17,html-slider-response,
449,main,,POSITIVE,,,,0.0-8.0-0.1,,10000,,5826,5000,Only some types of work are appropriate for both men and women.<br><br>,,89396,,18,html-slider-response,
449,main,,NEGATIVE,,,,0.0-8.0-0.2,,10000,,5128,5000,Tasks around the house should not be assigned by sex.<br><br>,,94529,,19,html-slider-response,
449,main,,NEGATIVE,,,,0.0-8.0-0.3,,8484,,6267,5000,People should be treated the same regardless of their sex.<br><br>,,100803,,20,html-slider-response,
449,main,,POSITIVE,,,,0.0-8.0-0.4,,0,,3979,5000,Men are more sexual than women.<br><br>,,104786,,21,html-slider-response,
449,main,,POSITIVE,,,,0.0-8.0-0.5,,0,,5625,5000,A father’s major responsibility is to provide financially for his children.<br><br>,,110416,,22,html-slider-response,
449,main,,NEGATIVE,,,,0.0-8.0-0.6,,9992,,4308,5000,People can be both aggressive and nurturing regardless of sex.<br><br>,,114727,,23,html-slider-response,
449,main,,POSITIVE,,,,0.0-8.0-0.7,,0,,4455,5000,Mothers should make most decisions about how children are brought up.<br><br>,,119184,,24,html-slider-response,
449,main,,POSITIVE,,,,0.0-8.0-0.8,,2756,,4639,5000,Girls should be protected and watched over more than boys.<br><br>,,123825,,25,html-slider-response,
449,main,,POSITIVE,,,,0.0-8.0-0.9,,0,,3645,5000,"For many important jobs, it is better to choose men instead of women.<br><br>",,127472,,26,html-slider-response,
449,main,,NEGATIVE,,,,0.0-8.0-0.10,,10000,,9489,5000,The freedom that children are given should be determined by their age and maturity level and not by their sex.<br><br>,,136963,,27,html-slider-response,
449,main,,POSITIVE,,,,0.0-8.0-0.11,,10000,,4013,5000,Mothers should work only if necessary.<br><br>,,140977,,28,html-slider-response,
449,main,,NEGATIVE,,,,0.0-8.0-0.12,,7670,,7663,5000,We should stop thinking about whether people are male or female and focus on other characteristics.<br><br>,,148641,,29,html-slider-response,
449,main,,,,,,0.0-9.0,,0,,2458,,"<p><font size='3'>You have completed the questionnaire. There will now be an optional survey. Please answer the following questions if you feel comfortable doing so. If you do not wish to answer a question, please leave it blank. <br><br>When you're ready to procede, click ‘Continue’.</font></p>",,151100,,30,html-button-response,
449,main,,,,,,0.0-10.0,[0],{'Q0': 2},,2096,,,,153201,,31,survey-likert,
449,main,[],,,,,0.0-11.0,,"{'age': '32', 'enjoy': 'Better than the average experiment', 'gender': 'Male', 'region': 'Northeast - CT, DC, DE, MA, MD, ME, NH, NJ, NY, PA, RI, VT', 'correct': 'Yes', 'payment': 'The payment was fair', 'comments': '', 'language': 'English', 'education': 'Graduated college', 'question1': None}",,32149,,,,185443,,32,survey,
449,main,,,,,,0.0-12.0,,0,,1125,,Thank you for your time! Please click 'Finish' and then wait a moment until you're directed back to Prolific.<br><br>,,186569,,33,html-button-response,
500,main,,,[],[],[],0.0-0.0,,,,,,,True,462,False,0,preload,
500,main,,,,,,0.0-1.0,,0,,5664,,"<p><font size='3'>DESCRIPTION: You are invited to participate in a research study. Its general purpose is to understand how people perceive speech. We are interested in how people make use of varying properties of language to infer social information about a speaker. In this study, you will hear spoken sentences, and you will be asked to make simple decisions about the sentences you hear. Following this, you will be asked to complete a short questionnaire, where you will indicate on a sliding scale how much you agree or disagree with a series of statements. You will also be asked to complete an optional demographic survey. <br><br>TIME INVOLVEMENT: Your participation will take approximately 3 to 10 minutes. <br><br>RISKS AND BENEFITS: The foreseeable risks associated with this study are minimal. This judgment is based on a large body of experience with the same or similar procedures with people of similar ages, sex, origins, etc. Study data will be stored securely, in compliance with Stanford University standards, minimizing the risk of confidentiality breach. There are no known benefits to you for participating in this study, and we cannot and do not guarantee or promise that you will receive any benefits from this study. You will help us to understand how people perceive spoken language. <br><br>PAYMENT: You will be paid at the posted rate. <br><br>PARTICIPANT RIGHTS: If you have read this form and have decided to participate in this project, please understand your participation is voluntary and you have the right to withdraw your consent or discontinue participation at any time without penalty or loss of benefits to which you are otherwise entitled. The alternative is not to participate. You have the right to refuse to answer particular questions. The results of this research study may be presented at scientific or professional meetings or published in scientific journals. Your individual privacy will be maintained in all published and written data resulting from the study. In accordance with scientific norms, the data from this study may be used or shared with other researchers for future research (after removing personally identifying information) without additional consent from you. <br><br>CONTACT INFORMATION: If you have any questions, concerns or complaints about this research study, its procedures, risks and benefits, you should contact the Protocol Director Grace Brown at (616) 498-8188. If you are not satisfied with how this study is being conducted, or if you have any concerns, complaints, or general questions about the research or your rights as a participant, please contact the Stanford Institutional Review Board (IRB) to speak to someone independent of the research team at (650) 723-2480 or toll free at 1-866-680-2906. You can also write to the Stanford IRB, Stanford University, 3000 El Camino Real, Five Palo Alto Square, 4th Floor, Palo Alto, CA 94306 USA. <br><br>WAIVER OF DOCUMENTATION: If you agree to participate in this research, please click the 'Continue' button. </font></p>",,6130,,1,html-button-response,
500,main,,,,,,0.0-2.0,,0,,5318,,"<p><font size='3'>This study requires you to listen to audio clips. To ensure you can adequately hear the audio presented in this study, the next page will have an audio attention check. Please wear headphones, and be prepared to adjust the volume on your device if necessary. <br><br> When you are ready to begin the audio attention check, click 'Start'. </font></p>",,11449,,2,html-button-response,
500,main,,,,,,0.0-3.0,,2,incorrect,5091,,audio/gift.wav,,16799,,3,audio-button-response,
500,main,,,,,,0.0-4.0,,0,,1799,,<p>Correct! You are ready to begin the study.</p>,,18599,,4,html-button-response,
500,main,,,,,,0.0-5.0,,0,,22463,,"<p><font size='3'>In this study, you will listen to a series of sentences. Each sentence is produced by a different speaker. While listening to each sentence, you will be prompted to rate the social characteristics of its speaker. To rate the social characteristics of a speaker, click along the scale that appears on your screen. You can click along this scale after the speaker stops talking. Try to respond as quickly as you can. The study will advance automatically if you do not respond within ten seconds. <br><br>Make sure you are wearing headphones. When you're ready to hear the first speaker, click ‘Start’. </font></p>",,41064,,5,html-button-response,
500,main,,625,,,,0.0-6.0-0.0,,4628,,6669,5000,audio/625_B2_CN7.wav,,47733,,6,audio-slider-response,
500,main,,,,,,0.0-6.0-1.0,,,,,,,,48743,,7,html-keyboard-response,
500,main,,340,,,,0.0-6.0-0.1,,5634,,9771,5000,audio/340_B1_CN7.wav,,58517,,8,audio-slider-response,
500,main,,,,,,0.0-6.0-1.1,,,,,,,,59519,,9,html-keyboard-response,
500,main,,246,,,,0.0-6.0-0.2,,1609,,8429,5000,audio/246_B2_CN7.wav,,67950,,10,audio-slider-response,
500,main,,,,,,0.0-6.0-1.2,,,,,,,,68966,,11,html-keyboard-response,
500,main,,723,,,,0.0-6.0-0.3,,6654,,5840,5000,audio/723_B1_CN7.wav,,74803,,12,audio-slider-response,
500,main,,,,,,0.0-6.0-1.3,,,,,,,,75805,,13,html-keyboard-response,
500,main,,193,,,,0.0-6.0-0.4,,6985,,6149,5000,audio/193_B1_CN7.wav,,81953,,14,audio-slider-response,
500,main,,,,,,0.0-6.0-1.4,,,,,,,,82963,,15,html-keyboard-response,
500,main,,,,,,0.0-7.0,,0,,6448,,"<p><font size='3'>You have completed the listening trials. You will now complete a short questionnaire. During the questionnaire, you will see a series of statements alongside a scale. Click along the scale to indicate how much you agree or disagree with the statement. Upon completion of the questionnaire, you will be asked to fill out an optional demographic survey. <br><br>When you're ready to begin the questionnaire, click ‘Continue’.</font></p>",,89412,,16,html-button-response,
500,main,,NEGATIVE,,,,0.0-8.0-0.0,,10000,,8126,5000,Tasks around the house should not be assigned by sex.<br><br>,,97541,,17,html-slider-response,
500,main,,POSITIVE,,,,0.0-8.0-0.1,,5000,,6465,5000,A father’s major responsibility is to provide financially for his children.<br><br>,,104008,,18,html-slider-response,
500,main,,NEGATIVE,,,,0.0-8.0-0.2,,10000,,6934,5000,The freedom that children are given should be determined by their age and maturity level and not by their sex.<br><br>,,110944,,19,html-slider-response,
500,main,,POSITIVE,,,,0.0-8.0-0.3,,2974,,6959,5000,Mothers should make most decisions about how children are brought up.<br><br>,,117904,,20,html-slider-response,
500,main,,POSITIVE,,,,0.0-8.0-0.4,,0,,8117,5000,Mothers should work only if necessary.<br><br>,,126020,,21,html-slider-response,
500,main,,POSITIVE,,,,0.0-8.0-0.5,,65,,5114,5000,"For many important jobs, it is better to choose men instead of women.<br><br>",,131135,,22,html-slider-response,
500,main,,POSITIVE,,,,0.0-8.0-0.6,,121,,4618,5000,Girls should be protected and watched over more than boys.<br><br>,,135755,,23,html-slider-response,
500,main,,POSITIVE,,,,0.0-8.0-0.7,,10,,4542,5000,Some types of work are just not appropriate for women.<br><br>,,140299,,24,html-slider-response,
500,main,,NEGATIVE,,,,0.0-8.0-0.8,,9948,,4628,5000,People should be treated the same regardless of their sex.<br><br>,,144928,,25,html-slider-response,
500,main,,NEGATIVE,,,,0.0-8.0-0.9,,6254,,7183,5000,We should stop thinking about whether people are male or female and focus on other characteristics.<br><br>,,152113,,26,html-slider-response,
500,main,,POSITIVE,,,,0.0-8.0-0.10,,631,,5543,5000,Only some types of work are appropriate for both men and women.<br><br>,,157658,,27,html-slider-response,
500,main,,NEGATIVE,,,,0.0-8.0-0.11,,10000,,7444,5000,People can be both aggressive and nurturing regardless of sex.<br><br>,,165104,,28,html-slider-response,
500,main,,POSITIVE,,,,0.0-8.0-0.12,,38,,5150,5000,Men are more sexual than women.<br><br>,,170256,,29,html-slider-response,
500,main,,,,,,0.0-9.0,,0,,8002,,"<p><font size='3'>You have completed the questionnaire. There will now be an optional survey. Please answer the following questions if you feel comfortable doing so. If you do not wish to answer a question, please leave it blank. <br><br>When you're ready to procede, click ‘Continue’.</font></p>",,178260,,30,html-button-response,
500,main,,,,,,0.0-10.0,[0],{'Q0': 2},,5373,,,,183639,,31,survey-likert,
500,main,[],,,,,0.0-11.0,,"{'age': '34', 'enjoy': 'Better than the average experiment', 'gender': 'Male', 'region': 'Southeast - AL, AR, FL, GA, KY, LA, MS, NC, SC, TN, VA, WV', 'correct': 'Yes', 'payment': 'The payment was fair', 'comments': 'no', 'language': 'English', 'education': 'Some college', 'question1': None}",,47034,,,,230720,,32,survey,
500,main,,,,,,0.0-12.0,,0,,3053,,Thank you for your time! Please click 'Finish' and then wait a moment until you're directed back to Prolific.<br><br>,,233775,,33,html-button-response,
545,main,,,[],[],[],0.0-0.0,,,,,,,True,71,False,0,preload,
545,main,,,,,,0.0-1.0,,0,,16919,,"<p><font size='3'>DESCRIPTION: You are invited to participate in a research study. Its general purpose is to understand how people perceive speech. We are interested in how people make use of varying properties of language to infer social information about a speaker. In this study, you will hear spoken sentences, and you will be asked to make simple decisions about the sentences you hear. Following this, you will be asked to complete a short questionnaire, where you will indicate on a sliding scale how much you agree or disagree with a series of statements. You will also be asked to complete an optional demographic survey. <br><br>TIME INVOLVEMENT: Your participation will take approximately 3 to 10 minutes. <br><br>RISKS AND BENEFITS: The foreseeable risks associated with this study are minimal. This judgment is based on a large body of experience with the same or similar procedures with people of similar ages, sex, origins, etc. Study data will be stored securely, in compliance with Stanford University standards, minimizing the risk of confidentiality breach. There are no known benefits to you for participating in this study, and we cannot and do not guarantee or promise that you will receive any benefits from this study. You will help us to understand how people perceive spoken language. <br><br>PAYMENT: You will be paid at the posted rate. <br><br>PARTICIPANT RIGHTS: If you have read this form and have decided to participate in this project, please understand your participation is voluntary and you have the right to withdraw your consent or discontinue participation at any time without penalty or loss of benefits to which you are otherwise entitled. The alternative is not to participate. You have the right to refuse to answer particular questions. The results of this research study may be presented at scientific or professional meetings or published in scientific journals. Your individual privacy will be maintained in all published and written data resulting from the study. In accordance with scientific norms, the data from this study may be used or shared with other researchers for future research (after removing personally identifying information) without additional consent from you. <br><br>CONTACT INFORMATION: If you have any questions, concerns or complaints about this research study, its procedures, risks and benefits, you should contact the Protocol Director Grace Brown at (616) 498-8188. If you are not satisfied with how this study is being conducted, or if you have any concerns, complaints, or general questions about the research or your rights as a participant, please contact the Stanford Institutional Review Board (IRB) to speak to someone independent of the research team at (650) 723-2480 or toll free at 1-866-680-2906. You can also write to the Stanford IRB, Stanford University, 3000 El Camino Real, Five Palo Alto Square, 4th Floor, Palo Alto, CA 94306 USA. <br><br>WAIVER OF DOCUMENTATION: If you agree to participate in this research, please click the 'Continue' button. </font></p>",,16992,,1,html-button-response,
545,main,,,,,,0.0-2.0,,0,,8064,,"<p><font size='3'>This study requires you to listen to audio clips. To ensure you can adequately hear the audio presented in this study, the next page will have an audio attention check. Please wear headphones, and be prepared to adjust the volume on your device if necessary. <br><br> When you are ready to begin the audio attention check, click 'Start'. </font></p>",,25057,,2,html-button-response,
545,main,,,,,,0.0-3.0,,2,incorrect,3021,,audio/gift.wav,,28420,,3,audio-button-response,
545,main,,,,,,0.0-4.0,,0,,1379,,<p>Correct! You are ready to begin the study.</p>,,29801,,4,html-button-response,
545,main,,,,,,0.0-5.0,,0,,11632,,"<p><font size='3'>In this study, you will listen to a series of sentences. Each sentence is produced by a different speaker. While listening to each sentence, you will be prompted to rate the social characteristics of its speaker. To rate the social characteristics of a speaker, click along the scale that appears on your screen. You can click along this scale after the speaker stops talking. Try to respond as quickly as you can. The study will advance automatically if you do not respond within ten seconds. <br><br>Make sure you are wearing headphones. When you're ready to hear the first speaker, click ‘Start’. </font></p>",,41433,,5,html-button-response,
545,main,,625,,,,0.0-6.0-0.0,,,,,5000,audio/625_B2_CN7.wav,,51437,,6,audio-slider-response,
545,main,,,,,,0.0-6.0-1.0,,,,,,,,52446,,7,html-keyboard-response,
545,main,,193,,,,0.0-6.0-0.1,,9161,,5659,5000,audio/193_B1_CN7.wav,,58101,,8,audio-slider-response,
545,main,,,,,,0.0-6.0-1.1,,,,,,,,59102,,9,html-keyboard-response,
545,main,,340,,,,0.0-6.0-0.2,,,,,5000,audio/340_B1_CN7.wav,,69100,,10,audio-slider-response,
545,main,,,,,,0.0-6.0-1.2,,,,,,,,70112,,11,html-keyboard-response,
545,main,,246,,,,0.0-6.0-0.3,,0,,5280,5000,audio/246_B2_CN7.wav,,75402,,12,audio-slider-response,
545,main,,,,,,0.0-6.0-1.3,,,,,,,,76407,,13,html-keyboard-response,
545,main,,723,,,,0.0-6.0-0.4,,10000,,4309,5000,audio/723_B1_CN7.wav,,80715,,14,audio-slider-response,
545,main,,,,,,0.0-6.0-1.4,,,,,,,,81730,,15,html-keyboard-response,
545,main,,,,,,0.0-7.0,,0,,4735,,"<p><font size='3'>You have completed the listening trials. You will now complete a short questionnaire. During the questionnaire, you will see a series of statements alongside a scale. Click along the scale to indicate how much you agree or disagree with the statement. Upon completion of the questionnaire, you will be asked to fill out an optional demographic survey. <br><br>When you're ready to begin the questionnaire, click ‘Continue’.</font></p>",,86466,,16,html-button-response,
545,main,,POSITIVE,,,,0.0-8.0-0.0,,5166,,10754,5000,Mothers should make most decisions about how children are brought up.<br><br>,,97223,,17,html-slider-response,
545,main,,POSITIVE,,,,0.0-8.0-0.1,,0,,3585,5000,Girls should be protected and watched over more than boys.<br><br>,,100809,,18,html-slider-response,
545,main,,POSITIVE,,,,0.0-8.0-0.2,,0,,5015,5000,"For many important jobs, it is better to choose men instead of women.<br><br>",,105826,,19,html-slider-response,
545,main,,POSITIVE,,,,0.0-8.0-0.3,,0,,3073,5000,Some types of work are just not appropriate for women.<br><br>,,108900,,20,html-slider-response,
545,main,,NEGATIVE,,,,0.0-8.0-0.4,,10000,,4793,5000,The freedom that children are given should be determined by their age and maturity level and not by their sex.<br><br>,,113695,,21,html-slider-response,
545,main,,NEGATIVE,,,,0.0-8.0-0.5,,10000,,3614,5000,People should be treated the same regardless of their sex.<br><br>,,117311,,22,html-slider-response,
545,main,,NEGATIVE,,,,0.0-8.0-0.6,,10000,,3469,5000,Tasks around the house should not be assigned by sex.<br><br>,,120775,,23,html-slider-response,
545,main,,POSITIVE,,,,0.0-8.0-0.7,,0,,4137,5000,Mothers should work only if necessary.<br><br>,,124913,,24,html-slider-response,
545,main,,NEGATIVE,,,,0.0-8.0-0.8,,10000,,4621,5000,We should stop thinking about whether people are male or female and focus on other characteristics.<br><br>,,129535,,25,html-slider-response,
545,main,,POSITIVE,,,,0.0-8.0-0.9,,0,,3397,5000,Men are more sexual than women.<br><br>,,132934,,26,html-slider-response,
545,main,,POSITIVE,,,,0.0-8.0-0.10,,0,,4312,5000,A father’s major responsibility is to provide financially for his children.<br><br>,,137249,,27,html-slider-response,
545,main,,NEGATIVE,,,,0.0-8.0-0.11,,10000,,10654,5000,People can be both aggressive and nurturing regardless of sex.<br><br>,,147904,,28,html-slider-response,
545,main,,POSITIVE,,,,0.0-8.0-0.12,,0,,4537,5000,Only some types of work are appropriate for both men and women.<br><br>,,152443,,29,html-slider-response,
545,main,,,,,,0.0-9.0,,0,,2823,,"<p><font size='3'>You have completed the questionnaire. There will now be an optional survey. Please answer the following questions if you feel comfortable doing so. If you do not wish to answer a question, please leave it blank. <br><br>When you're ready to procede, click ‘Continue’.</font></p>",,155266,,30,html-button-response,
545,main,,,,,,0.0-10.0,[0],{'Q0': 0},,3660,,,,158929,,31,survey-likert,
545,main,[],,,,,0.0-11.0,,"{'age': '49', 'enjoy': 'Better than the average experiment', 'gender': 'Non-binary/Non-conforming', 'region': 'Southeast - AL, AR, FL, GA, KY, LA, MS, NC, SC, TN, VA, WV', 'correct': 'Yes', 'payment': 'The payment was fair', 'comments': '', 'language': 'English', 'education': 'Hold a higher degree', 'question1': None}",,67221,,,,226202,,32,survey,
545,main,,,,,,0.0-12.0,,0,,1708,,Thank you for your time! Please click 'Finish' and then wait a moment until you're directed back to Prolific.<br><br>,,227911,,33,html-button-response,
530,main,,,[],[],[],0.0-0.0,,,,,,,True,430,False,0,preload,
